study_trials.thisRepN,study_trials.thisTrialN,study_trials.thisN,study_trials.thisIndex,text_14.started,text_14.stopped,study_instructions.started,study_instructions.stopped,study_instr_resp.keys,study_instr_resp.rt,study_instr_resp.started,study_instr_resp.stopped,StudyTrial,StudyImage,Condition,study_outdoor_selected.started,study_outdoor_selected.stopped,study_outdoor.started,study_outdoor.stopped,study_indoor_selected.started,study_indoor_selected.stopped,study_indoor.started,study_indoor.stopped,study_image_shown.started,study_image_shown.stopped,study_resp.keys,study_resp.rt,study_resp.started,study_resp.stopped,text_4.started,text_4.stopped,end_resp.keys,end_resp.started,end_resp.stopped,participant,First name,Last name,date,expName,psychopyVersion,frameRate,
,,,,7.833689147999394,None,8.838047479002853,None,space,2.605912258004537,8.838047479002853,None,,,,,,,,,,,,,,,,,,,,,,,123,,,2022_Jan_09_1244,BLAES_MST_encoding,3.2.4,236.12038344855486,
0,0,0,0,14.480687333008973,None,,,,,,,1,all_images/3_170a.jpg,LSim,11.466654640011257,None,11.466654640011257,None,11.466654640011257,None,11.466654640011257,None,11.466654640011257,None,j,2.529276633998961,11.466654640011257,None,,,,,,123,,,2022_Jan_09_1244,BLAES_MST_encoding,3.2.4,236.12038344855486,
1,0,1,0,18.501087024997105,None,,,,,,,2,all_images/3_083a.jpg,HSim,15.493450199006475,None,15.493450199006475,None,15.493450199006475,None,15.493450199006475,None,15.493450199006475,None,f,0.5304426700022304,15.493450199006475,None,,,,,,123,,,2022_Jan_09_1244,BLAES_MST_encoding,3.2.4,236.12038344855486,
2,0,2,0,22.51817621900409,None,,,,,,,3,all_images/E_148a.jpg,HSim,19.509701486997074,None,19.509701486997074,None,19.509701486997074,None,19.509701486997074,None,19.509701486997074,None,j,0.37825006200000644,19.509701486997074,None,,,,,,123,,,2022_Jan_09_1244,BLAES_MST_encoding,3.2.4,236.12038344855486,
3,0,3,0,26.539163282010122,None,,,,,,,4,all_images/2_163a.jpg,HSim,23.529472316004103,None,23.529472316004103,None,23.529472316004103,None,23.529472316004103,None,23.529472316004103,None,None,,23.529472316004103,None,,,,,,123,,,2022_Jan_09_1244,BLAES_MST_encoding,3.2.4,236.12038344855486,
4,0,4,0,30.556822148006177,None,,,,,,,5,all_images/6_182a.jpg,LSim,27.549164930998813,None,27.549164930998813,None,27.549164930998813,None,27.549164930998813,None,27.549164930998813,None,None,,27.549164930998813,None,,,,,,123,,,2022_Jan_09_1244,BLAES_MST_encoding,3.2.4,236.12038344855486,
5,0,5,0,34.578988063003635,None,,,,,,,6,all_images/3_108a.jpg,LSim,31.568903389998013,None,31.568903389998013,None,31.568903389998013,None,31.568903389998013,None,31.568903389998013,None,None,,31.568903389998013,None,,,,,,123,,,2022_Jan_09_1244,BLAES_MST_encoding,3.2.4,236.12038344855486,
6,0,6,0,38.59737373700773,None,,,,,,,7,all_images/2_105a.jpg,HSim,35.58906054300314,None,35.58906054300314,None,35.58906054300314,None,35.58906054300314,None,35.58906054300314,None,None,,35.58906054300314,None,,,,,,123,,,2022_Jan_09_1244,BLAES_MST_encoding,3.2.4,236.12038344855486,
7,0,7,0,42.6192448970105,None,,,,,,,8,all_images/1_072a.jpg,HSim,39.60783552200883,None,39.60783552200883,None,39.60783552200883,None,39.60783552200883,None,39.60783552200883,None,None,,39.60783552200883,None,,,,,,123,,,2022_Jan_09_1244,BLAES_MST_encoding,3.2.4,236.12038344855486,
8,0,8,0,46.64219967900135,None,,,,,,,9,all_images/1_098a.jpg,HSim,43.63107673100603,None,43.63107673100603,None,43.63107673100603,None,43.63107673100603,None,43.63107673100603,None,None,,43.63107673100603,None,,,,,,123,,,2022_Jan_09_1244,BLAES_MST_encoding,3.2.4,236.12038344855486,
9,0,9,0,50.660161496998626,None,,,,,,,10,all_images/3_146a.jpg,LSim,47.65100817399798,None,47.65100817399798,None,47.65100817399798,None,47.65100817399798,None,47.65100817399798,None,None,,47.65100817399798,None,,,,,,123,,,2022_Jan_09_1244,BLAES_MST_encoding,3.2.4,236.12038344855486,
10,0,10,0,54.681456542006345,None,,,,,,,11,all_images/3_086a.jpg,LSim,51.670706506003626,None,51.670706506003626,None,51.670706506003626,None,51.670706506003626,None,51.670706506003626,None,None,,51.670706506003626,None,,,,,,123,,,2022_Jan_09_1244,BLAES_MST_encoding,3.2.4,236.12038344855486,
11,0,11,0,58.703095631004544,None,,,,,,,12,all_images/4_152a.jpg,HSim,55.69114702100342,None,55.69114702100342,None,55.69114702100342,None,55.69114702100342,None,55.69114702100342,None,None,,55.69114702100342,None,,,,,,123,,,2022_Jan_09_1244,BLAES_MST_encoding,3.2.4,236.12038344855486,
12,0,12,0,62.72748417301045,None,,,,,,,13,all_images/1_165a.jpg,LSim,59.71583641300094,None,59.71583641300094,None,59.71583641300094,None,59.71583641300094,None,59.71583641300094,None,None,,59.71583641300094,None,,,,,,123,,,2022_Jan_09_1244,BLAES_MST_encoding,3.2.4,236.12038344855486,
13,0,13,0,66.74942354200175,None,,,,,,,14,all_images/6_076a.jpg,HSim,63.737159586002235,None,63.737159586002235,None,63.737159586002235,None,63.737159586002235,None,63.737159586002235,None,None,,63.737159586002235,None,,,,,,123,,,2022_Jan_09_1244,BLAES_MST_encoding,3.2.4,236.12038344855486,
14,0,14,0,70.77451175900933,None,,,,,,,15,all_images/4_176a.jpg,LSim,67.76333842700114,None,67.76333842700114,None,67.76333842700114,None,67.76333842700114,None,67.76333842700114,None,None,,67.76333842700114,None,,,,,,123,,,2022_Jan_09_1244,BLAES_MST_encoding,3.2.4,236.12038344855486,
15,0,15,0,74.79742521900334,None,,,,,,,16,all_images/1_158a.jpg,HSim,71.78444464800123,None,71.78444464800123,None,71.78444464800123,None,71.78444464800123,None,71.78444464800123,None,None,,71.78444464800123,None,,,,,,123,,,2022_Jan_09_1244,BLAES_MST_encoding,3.2.4,236.12038344855486,
16,0,16,0,78.81851876201108,None,,,,,,,17,all_images/2_061a.jpg,HSim,75.80919000600989,None,75.80919000600989,None,75.80919000600989,None,75.80919000600989,None,75.80919000600989,None,j,0.4907011470058933,75.80919000600989,None,,,,,,123,,,2022_Jan_09_1244,BLAES_MST_encoding,3.2.4,236.12038344855486,
17,0,17,0,82.84067374300503,None,,,,,,,18,all_images/5_071a.jpg,HSim,79.82922724800301,None,79.82922724800301,None,79.82922724800301,None,79.82922724800301,None,79.82922724800301,None,f,0.31867098799557425,79.82922724800301,None,,,,,,123,,,2022_Jan_09_1244,BLAES_MST_encoding,3.2.4,236.12038344855486,
18,0,18,0,86.8647863290098,None,,,,,,,19,all_images/4_077a.jpg,LSim,83.85462833700876,None,83.85462833700876,None,83.85462833700876,None,83.85462833700876,None,83.85462833700876,None,None,,83.85462833700876,None,,,,,,123,,,2022_Jan_09_1244,BLAES_MST_encoding,3.2.4,236.12038344855486,
19,0,19,0,90.88924167799996,None,,,,,,,20,all_images/2_024a.jpg,HSim,87.87613490699732,None,87.87613490699732,None,87.87613490699732,None,87.87613490699732,None,87.87613490699732,None,None,,87.87613490699732,None,,,,,,123,,,2022_Jan_09_1244,BLAES_MST_encoding,3.2.4,236.12038344855486,
20,0,20,0,94.91252311501012,None,,,,,,,21,all_images/1_074a.jpg,HSim,91.9003234319971,None,91.9003234319971,None,91.9003234319971,None,91.9003234319971,None,91.9003234319971,None,None,,91.9003234319971,None,,,,,,123,,,2022_Jan_09_1244,BLAES_MST_encoding,3.2.4,236.12038344855486,
21,0,21,0,98.93494798100437,None,,,,,,,22,all_images/3_144a.jpg,LSim,95.92501381800685,None,95.92501381800685,None,95.92501381800685,None,95.92501381800685,None,95.92501381800685,None,j,2.2349105430039344,95.92501381800685,None,,,,,,123,,,2022_Jan_09_1244,BLAES_MST_encoding,3.2.4,236.12038344855486,
22,0,22,0,102.9607302610093,None,,,,,,,23,all_images/3_068a.jpg,LSim,99.94834693000303,None,99.94834693000303,None,99.94834693000303,None,99.94834693000303,None,99.94834693000303,None,None,,99.94834693000303,None,,,,,,123,,,2022_Jan_09_1244,BLAES_MST_encoding,3.2.4,236.12038344855486,
23,0,23,0,106.98488727401127,None,,,,,,,24,all_images/5_119a.jpg,LSim,103.9758023690083,None,103.9758023690083,None,103.9758023690083,None,103.9758023690083,None,103.9758023690083,None,None,,103.9758023690083,None,,,,,,123,,,2022_Jan_09_1244,BLAES_MST_encoding,3.2.4,236.12038344855486,
24,0,24,0,111.00783659100125,None,,,,,,,25,all_images/5_131a.jpg,LSim,107.99462238200067,None,107.99462238200067,None,107.99462238200067,None,107.99462238200067,None,107.99462238200067,None,None,,107.99462238200067,None,,,,,,123,,,2022_Jan_09_1244,BLAES_MST_encoding,3.2.4,236.12038344855486,
25,0,25,0,115.03528296100558,None,,,,,,,26,all_images/4_115a.jpg,LSim,112.02329771200311,None,112.02329771200311,None,112.02329771200311,None,112.02329771200311,None,112.02329771200311,None,None,,112.02329771200311,None,,,,,,123,,,2022_Jan_09_1244,BLAES_MST_encoding,3.2.4,236.12038344855486,
26,0,26,0,119.05823999999848,None,,,,,,,27,all_images/E_146a.jpg,HSim,116.04631559700647,None,116.04631559700647,None,116.04631559700647,None,116.04631559700647,None,116.04631559700647,None,j,0.9775903280096827,116.04631559700647,None,,,,,,123,,,2022_Jan_09_1244,BLAES_MST_encoding,3.2.4,236.12038344855486,
27,0,27,0,123.08173628500663,None,,,,,,,28,all_images/5_016a.jpg,HSim,120.06907624501036,None,120.06907624501036,None,120.06907624501036,None,120.06907624501036,None,120.06907624501036,None,None,,120.06907624501036,None,,,,,,123,,,2022_Jan_09_1244,BLAES_MST_encoding,3.2.4,236.12038344855486,
28,0,28,0,127.10593486900325,None,,,,,,,29,all_images/6_021a.jpg,LSim,124.09425992300385,None,124.09425992300385,None,124.09425992300385,None,124.09425992300385,None,124.09425992300385,None,None,,124.09425992300385,None,,,,,,123,,,2022_Jan_09_1244,BLAES_MST_encoding,3.2.4,236.12038344855486,
29,0,29,0,131.1255640419986,None,,,,,,,30,all_images/1_124a.jpg,LSim,128.11742631300876,None,128.11742631300876,None,128.11742631300876,None,128.11742631300876,None,128.11742631300876,None,None,,128.11742631300876,None,,,,,,123,,,2022_Jan_09_1244,BLAES_MST_encoding,3.2.4,236.12038344855486,
30,0,30,0,135.1502474900044,None,,,,,,,31,all_images/F_027a.jpg,HSim,132.13657936699747,None,132.13657936699747,None,132.13657936699747,None,132.13657936699747,None,132.13657936699747,None,j,1.787337364992709,132.13657936699747,None,,,,,,123,,,2022_Jan_09_1244,BLAES_MST_encoding,3.2.4,236.12038344855486,
31,0,31,0,139.17689704500663,None,,,,,,,32,all_images/1_053a.jpg,LSim,136.16500597800768,None,136.16500597800768,None,136.16500597800768,None,136.16500597800768,None,136.16500597800768,None,f,1.0388989570055855,136.16500597800768,None,,,,,,123,,,2022_Jan_09_1244,BLAES_MST_encoding,3.2.4,236.12038344855486,
32,0,32,0,143.2038523430092,None,,,,,,,33,all_images/1_010a.jpg,LSim,140.19132612000976,None,140.19132612000976,None,140.19132612000976,None,140.19132612000976,None,140.19132612000976,None,None,,140.19132612000976,None,,,,,,123,,,2022_Jan_09_1244,BLAES_MST_encoding,3.2.4,236.12038344855486,
33,0,33,0,147.22702831400966,None,,,,,,,34,all_images/1_183a.jpg,LSim,144.21632121800212,None,144.21632121800212,None,144.21632121800212,None,144.21632121800212,None,144.21632121800212,None,None,,144.21632121800212,None,,,,,,123,,,2022_Jan_09_1244,BLAES_MST_encoding,3.2.4,236.12038344855486,
34,0,34,0,151.25121697199938,None,,,,,,,35,all_images/C_051a.jpg,HSim,148.2383777990035,None,148.2383777990035,None,148.2383777990035,None,148.2383777990035,None,148.2383777990035,None,None,,148.2383777990035,None,,,,,,123,,,2022_Jan_09_1244,BLAES_MST_encoding,3.2.4,236.12038344855486,
35,0,35,0,155.27244239700667,None,,,,,,,36,all_images/6_044a.jpg,HSim,152.26202544399712,None,152.26202544399712,None,152.26202544399712,None,152.26202544399712,None,152.26202544399712,None,None,,152.26202544399712,None,,,,,,123,,,2022_Jan_09_1244,BLAES_MST_encoding,3.2.4,236.12038344855486,
36,0,36,0,159.2984378740075,None,,,,,,,37,all_images/1_085a.jpg,LSim,156.28672249500232,None,156.28672249500232,None,156.28672249500232,None,156.28672249500232,None,156.28672249500232,None,None,,156.28672249500232,None,,,,,,123,,,2022_Jan_09_1244,BLAES_MST_encoding,3.2.4,236.12038344855486,
37,0,37,0,163.3227342790051,None,,,,,,,38,all_images/C_085a.jpg,LSim,160.31005558100878,None,160.31005558100878,None,160.31005558100878,None,160.31005558100878,None,160.31005558100878,None,None,,160.31005558100878,None,,,,,,123,,,2022_Jan_09_1244,BLAES_MST_encoding,3.2.4,236.12038344855486,
38,0,38,0,167.34490634000394,None,,,,,,,39,all_images/5_129a.jpg,LSim,164.33581194200087,None,164.33581194200087,None,164.33581194200087,None,164.33581194200087,None,164.33581194200087,None,None,,164.33581194200087,None,,,,,,123,,,2022_Jan_09_1244,BLAES_MST_encoding,3.2.4,236.12038344855486,
39,0,39,0,171.36934223100252,None,,,,,,,40,all_images/E_073a.jpg,HSim,168.35694164400047,None,168.35694164400047,None,168.35694164400047,None,168.35694164400047,None,168.35694164400047,None,None,,168.35694164400047,None,,,,,,123,,,2022_Jan_09_1244,BLAES_MST_encoding,3.2.4,236.12038344855486,
40,0,40,0,175.3926036930061,None,,,,,,,41,all_images/3_115a.jpg,LSim,172.3815199170058,None,172.3815199170058,None,172.3815199170058,None,172.3815199170058,None,172.3815199170058,None,None,,172.3815199170058,None,,,,,,123,,,2022_Jan_09_1244,BLAES_MST_encoding,3.2.4,236.12038344855486,
41,0,41,0,179.4156765259977,None,,,,,,,42,all_images/F_090a.jpg,HSim,176.4055223470059,None,176.4055223470059,None,176.4055223470059,None,176.4055223470059,None,176.4055223470059,None,None,,176.4055223470059,None,,,,,,123,,,2022_Jan_09_1244,BLAES_MST_encoding,3.2.4,236.12038344855486,
42,0,42,0,183.44171481599915,None,,,,,,,43,all_images/1_163a.jpg,HSim,180.43204041500576,None,180.43204041500576,None,180.43204041500576,None,180.43204041500576,None,180.43204041500576,None,None,,180.43204041500576,None,,,,,,123,,,2022_Jan_09_1244,BLAES_MST_encoding,3.2.4,236.12038344855486,
43,0,43,0,187.46339453200926,None,,,,,,,44,all_images/6_001a.jpg,LSim,184.45372276000853,None,184.45372276000853,None,184.45372276000853,None,184.45372276000853,None,184.45372276000853,None,None,,184.45372276000853,None,,,,,,123,,,2022_Jan_09_1244,BLAES_MST_encoding,3.2.4,236.12038344855486,
44,0,44,0,191.48631955000747,None,,,,,,,45,all_images/3_185a.jpg,LSim,188.47704343800433,None,188.47704343800433,None,188.47704343800433,None,188.47704343800433,None,188.47704343800433,None,None,,188.47704343800433,None,,,,,,123,,,2022_Jan_09_1244,BLAES_MST_encoding,3.2.4,236.12038344855486,
45,0,45,0,195.5087081590027,None,,,,,,,46,all_images/3_019a.jpg,LSim,192.49862210800347,None,192.49862210800347,None,192.49862210800347,None,192.49862210800347,None,192.49862210800347,None,None,,192.49862210800347,None,,,,,,123,,,2022_Jan_09_1244,BLAES_MST_encoding,3.2.4,236.12038344855486,
46,0,46,0,199.53488851200382,None,,,,,,,47,all_images/5_085a.jpg,HSim,196.5216994509974,None,196.5216994509974,None,196.5216994509974,None,196.5216994509974,None,196.5216994509974,None,None,,196.5216994509974,None,,,,,,123,,,2022_Jan_09_1244,BLAES_MST_encoding,3.2.4,236.12038344855486,
47,0,47,0,203.55694241600577,None,,,,,,,48,all_images/D_129a.jpg,LSim,200.5466814070096,None,200.5466814070096,None,200.5466814070096,None,200.5466814070096,None,200.5466814070096,None,None,,200.5466814070096,None,,,,,,123,,,2022_Jan_09_1244,BLAES_MST_encoding,3.2.4,236.12038344855486,
48,0,48,0,207.58193314301025,None,,,,,,,49,all_images/6_130a.jpg,LSim,204.57253928401042,None,204.57253928401042,None,204.57253928401042,None,204.57253928401042,None,204.57253928401042,None,None,,204.57253928401042,None,,,,,,123,,,2022_Jan_09_1244,BLAES_MST_encoding,3.2.4,236.12038344855486,
49,0,49,0,211.6054276900104,None,,,,,,,50,all_images/3_084a.jpg,LSim,208.59532123200188,None,208.59532123200188,None,208.59532123200188,None,208.59532123200188,None,208.59532123200188,None,None,,208.59532123200188,None,,,,,,123,,,2022_Jan_09_1244,BLAES_MST_encoding,3.2.4,236.12038344855486,
50,0,50,0,215.62297776600462,None,,,,,,,51,all_images/6_129a.jpg,LSim,212.6130872240028,None,212.6130872240028,None,212.6130872240028,None,212.6130872240028,None,212.6130872240028,None,None,,212.6130872240028,None,,,,,,123,,,2022_Jan_09_1244,BLAES_MST_encoding,3.2.4,236.12038344855486,
51,0,51,0,219.64543716600747,None,,,,,,,52,all_images/F_093a.jpg,LSim,216.63609698601067,None,216.63609698601067,None,216.63609698601067,None,216.63609698601067,None,216.63609698601067,None,None,,216.63609698601067,None,,,,,,123,,,2022_Jan_09_1244,BLAES_MST_encoding,3.2.4,236.12038344855486,
52,0,52,0,223.6668046220002,None,,,,,,,53,all_images/1_120a.jpg,HSim,220.65815708300215,None,220.65815708300215,None,220.65815708300215,None,220.65815708300215,None,220.65815708300215,None,None,,220.65815708300215,None,,,,,,123,,,2022_Jan_09_1244,BLAES_MST_encoding,3.2.4,236.12038344855486,
53,0,53,0,227.68774317399948,None,,,,,,,54,all_images/1_042a.jpg,LSim,224.67735098100093,None,224.67735098100093,None,224.67735098100093,None,224.67735098100093,None,224.67735098100093,None,None,,224.67735098100093,None,,,,,,123,,,2022_Jan_09_1244,BLAES_MST_encoding,3.2.4,236.12038344855486,
54,0,54,0,231.7120861250005,None,,,,,,,55,all_images/3_184a.jpg,HSim,228.70216168501065,None,228.70216168501065,None,228.70216168501065,None,228.70216168501065,None,228.70216168501065,None,None,,228.70216168501065,None,,,,,,123,,,2022_Jan_09_1244,BLAES_MST_encoding,3.2.4,236.12038344855486,
55,0,55,0,235.7314871270064,None,,,,,,,56,all_images/3_147a.jpg,LSim,232.7229378320044,None,232.7229378320044,None,232.7229378320044,None,232.7229378320044,None,232.7229378320044,None,None,,232.7229378320044,None,,,,,,123,,,2022_Jan_09_1244,BLAES_MST_encoding,3.2.4,236.12038344855486,
56,0,56,0,239.75819664500887,None,,,,,,,57,all_images/2_064a.jpg,LSim,236.7467744260066,None,236.7467744260066,None,236.7467744260066,None,236.7467744260066,None,236.7467744260066,None,None,,236.7467744260066,None,,,,,,123,,,2022_Jan_09_1244,BLAES_MST_encoding,3.2.4,236.12038344855486,
57,0,57,0,243.78284554299898,None,,,,,,,58,all_images/3_126a.jpg,LSim,240.7692365969997,None,240.7692365969997,None,240.7692365969997,None,240.7692365969997,None,240.7692365969997,None,None,,240.7692365969997,None,,,,,,123,,,2022_Jan_09_1244,BLAES_MST_encoding,3.2.4,236.12038344855486,
58,0,58,0,247.80383961999905,None,,,,,,,59,all_images/3_094a.jpg,LSim,244.7931754510064,None,244.7931754510064,None,244.7931754510064,None,244.7931754510064,None,244.7931754510064,None,None,,244.7931754510064,None,,,,,,123,,,2022_Jan_09_1244,BLAES_MST_encoding,3.2.4,236.12038344855486,
59,0,59,0,251.82869611600472,None,,,,,,,60,all_images/F_190a.jpg,LSim,248.81708690000232,None,248.81708690000232,None,248.81708690000232,None,248.81708690000232,None,248.81708690000232,None,None,,248.81708690000232,None,,,,,,123,,,2022_Jan_09_1244,BLAES_MST_encoding,3.2.4,236.12038344855486,
60,0,60,0,255.85801695300324,None,,,,,,,61,all_images/4_157a.jpg,LSim,252.8452545629989,None,252.8452545629989,None,252.8452545629989,None,252.8452545629989,None,252.8452545629989,None,None,,252.8452545629989,None,,,,,,123,,,2022_Jan_09_1244,BLAES_MST_encoding,3.2.4,236.12038344855486,
61,0,61,0,259.880412109007,None,,,,,,,62,all_images/D_180a.jpg,LSim,256.86940085901006,None,256.86940085901006,None,256.86940085901006,None,256.86940085901006,None,256.86940085901006,None,None,,256.86940085901006,None,,,,,,123,,,2022_Jan_09_1244,BLAES_MST_encoding,3.2.4,236.12038344855486,
62,0,62,0,263.90317096300714,None,,,,,,,63,all_images/2_117a.jpg,HSim,260.89228331400955,None,260.89228331400955,None,260.89228331400955,None,260.89228331400955,None,260.89228331400955,None,None,,260.89228331400955,None,,,,,,123,,,2022_Jan_09_1244,BLAES_MST_encoding,3.2.4,236.12038344855486,
63,0,63,0,267.9301008570037,None,,,,,,,64,all_images/6_008a.jpg,LSim,264.9177332780091,None,264.9177332780091,None,264.9177332780091,None,264.9177332780091,None,264.9177332780091,None,None,,264.9177332780091,None,,,,,,123,,,2022_Jan_09_1244,BLAES_MST_encoding,3.2.4,236.12038344855486,
64,0,64,0,271.9534545409988,None,,,,,,,65,all_images/1_186a.jpg,LSim,268.9419091910095,None,268.9419091910095,None,268.9419091910095,None,268.9419091910095,None,268.9419091910095,None,None,,268.9419091910095,None,,,,,,123,,,2022_Jan_09_1244,BLAES_MST_encoding,3.2.4,236.12038344855486,
65,0,65,0,275.97319204799714,None,,,,,,,66,all_images/3_141a.jpg,LSim,272.9646715179988,None,272.9646715179988,None,272.9646715179988,None,272.9646715179988,None,272.9646715179988,None,None,,272.9646715179988,None,,,,,,123,,,2022_Jan_09_1244,BLAES_MST_encoding,3.2.4,236.12038344855486,
66,0,66,0,279.99892378400546,None,,,,,,,67,all_images/2_007a.jpg,HSim,276.9861449739983,None,276.9861449739983,None,276.9861449739983,None,276.9861449739983,None,276.9861449739983,None,None,,276.9861449739983,None,,,,,,123,,,2022_Jan_09_1244,BLAES_MST_encoding,3.2.4,236.12038344855486,
67,0,67,0,284.02054549200693,None,,,,,,,68,all_images/5_007a.jpg,HSim,281.01206501699926,None,281.01206501699926,None,281.01206501699926,None,281.01206501699926,None,281.01206501699926,None,None,,281.01206501699926,None,,,,,,123,,,2022_Jan_09_1244,BLAES_MST_encoding,3.2.4,236.12038344855486,
68,0,68,0,288.04201445900253,None,,,,,,,69,all_images/4_106a.jpg,LSim,285.0317099399981,None,285.0317099399981,None,285.0317099399981,None,285.0317099399981,None,285.0317099399981,None,None,,285.0317099399981,None,,,,,,123,,,2022_Jan_09_1244,BLAES_MST_encoding,3.2.4,236.12038344855486,
69,0,69,0,292.066805622002,None,,,,,,,70,all_images/D_186a.jpg,HSim,289.0528278030106,None,289.0528278030106,None,289.0528278030106,None,289.0528278030106,None,289.0528278030106,None,f,0.9071060800051782,289.0528278030106,None,,,,,,123,,,2022_Jan_09_1244,BLAES_MST_encoding,3.2.4,236.12038344855486,
70,0,70,0,296.09421377100807,None,,,,,,,71,all_images/4_012a.jpg,LSim,293.0850469220022,None,293.0850469220022,None,293.0850469220022,None,293.0850469220022,None,293.0850469220022,None,f,1.7508982850122266,293.0850469220022,None,,,,,,123,,,2022_Jan_09_1244,BLAES_MST_encoding,3.2.4,236.12038344855486,
71,0,71,0,300.12192181100545,None,,,,,,,72,all_images/3_092a.jpg,HSim,297.1082194260089,None,297.1082194260089,None,297.1082194260089,None,297.1082194260089,None,297.1082194260089,None,f,1.451701432990376,297.1082194260089,None,,,,,,123,,,2022_Jan_09_1244,BLAES_MST_encoding,3.2.4,236.12038344855486,
72,0,72,0,304.1500141900033,None,,,,,,,73,all_images/5_089a.jpg,LSim,301.13661513500847,None,301.13661513500847,None,301.13661513500847,None,301.13661513500847,None,301.13661513500847,None,None,,301.13661513500847,None,,,,,,123,,,2022_Jan_09_1244,BLAES_MST_encoding,3.2.4,236.12038344855486,
73,0,73,0,308.17274931501015,None,,,,,,,74,all_images/5_139a.jpg,HSim,305.16315090400167,None,305.16315090400167,None,305.16315090400167,None,305.16315090400167,None,305.16315090400167,None,None,,305.16315090400167,None,,,,,,123,,,2022_Jan_09_1244,BLAES_MST_encoding,3.2.4,236.12038344855486,
74,0,74,0,312.19573501800187,None,,,,,,,75,all_images/5_174a.jpg,LSim,309.1867221880093,None,309.1867221880093,None,309.1867221880093,None,309.1867221880093,None,309.1867221880093,None,None,,309.1867221880093,None,,,,,,123,,,2022_Jan_09_1244,BLAES_MST_encoding,3.2.4,236.12038344855486,
75,0,75,0,316.2183800589992,None,,,,,,,76,all_images/4_145a.jpg,HSim,313.2076269840036,None,313.2076269840036,None,313.2076269840036,None,313.2076269840036,None,313.2076269840036,None,None,,313.2076269840036,None,,,,,,123,,,2022_Jan_09_1244,BLAES_MST_encoding,3.2.4,236.12038344855486,
76,0,76,0,320.23991709400434,None,,,,,,,77,all_images/6_111a.jpg,HSim,317.22984825501044,None,317.22984825501044,None,317.22984825501044,None,317.22984825501044,None,317.22984825501044,None,None,,317.22984825501044,None,,,,,,123,,,2022_Jan_09_1244,BLAES_MST_encoding,3.2.4,236.12038344855486,
77,0,77,0,324.263191414997,None,,,,,,,78,all_images/2_171a.jpg,LSim,321.25327055400703,None,321.25327055400703,None,321.25327055400703,None,321.25327055400703,None,321.25327055400703,None,None,,321.25327055400703,None,,,,,,123,,,2022_Jan_09_1244,BLAES_MST_encoding,3.2.4,236.12038344855486,
78,0,78,0,328.2897918700037,None,,,,,,,79,all_images/3_129a.jpg,HSim,325.2765071610047,None,325.2765071610047,None,325.2765071610047,None,325.2765071610047,None,325.2765071610047,None,None,,325.2765071610047,None,,,,,,123,,,2022_Jan_09_1244,BLAES_MST_encoding,3.2.4,236.12038344855486,
79,0,79,0,332.3162355920067,None,,,,,,,80,all_images/2_137a.jpg,HSim,329.30352511401,None,329.30352511401,None,329.30352511401,None,329.30352511401,None,329.30352511401,None,f,1.6923847250000108,329.30352511401,None,,,,,,123,,,2022_Jan_09_1244,BLAES_MST_encoding,3.2.4,236.12038344855486,
80,0,80,0,336.3446977290005,None,,,,,,,81,all_images/4_167a.jpg,HSim,333.3315885769989,None,333.3315885769989,None,333.3315885769989,None,333.3315885769989,None,333.3315885769989,None,None,,333.3315885769989,None,,,,,,123,,,2022_Jan_09_1244,BLAES_MST_encoding,3.2.4,236.12038344855486,
81,0,81,0,340.37120115400467,None,,,,,,,82,all_images/E_038a.jpg,HSim,337.35844965100114,None,337.35844965100114,None,337.35844965100114,None,337.35844965100114,None,337.35844965100114,None,None,,337.35844965100114,None,,,,,,123,,,2022_Jan_09_1244,BLAES_MST_encoding,3.2.4,236.12038344855486,
82,0,82,0,344.3954765140079,None,,,,,,,83,all_images/4_030a.jpg,HSim,341.38319196800876,None,341.38319196800876,None,341.38319196800876,None,341.38319196800876,None,341.38319196800876,None,None,,341.38319196800876,None,,,,,,123,,,2022_Jan_09_1244,BLAES_MST_encoding,3.2.4,236.12038344855486,
83,0,83,0,348.42024574399693,None,,,,,,,84,all_images/2_010a.jpg,LSim,345.40745495801093,None,345.40745495801093,None,345.40745495801093,None,345.40745495801093,None,345.40745495801093,None,None,,345.40745495801093,None,,,,,,123,,,2022_Jan_09_1244,BLAES_MST_encoding,3.2.4,236.12038344855486,
84,0,84,0,352.4435568610061,None,,,,,,,85,all_images/4_120a.jpg,HSim,349.4306615910027,None,349.4306615910027,None,349.4306615910027,None,349.4306615910027,None,349.4306615910027,None,None,,349.4306615910027,None,,,,,,123,,,2022_Jan_09_1244,BLAES_MST_encoding,3.2.4,236.12038344855486,
85,0,85,0,356.46681669300597,None,,,,,,,86,all_images/F_097a.jpg,HSim,353.4584381110035,None,353.4584381110035,None,353.4584381110035,None,353.4584381110035,None,353.4584381110035,None,None,,353.4584381110035,None,,,,,,123,,,2022_Jan_09_1244,BLAES_MST_encoding,3.2.4,236.12038344855486,
86,0,86,0,360.49260592099745,None,,,,,,,87,all_images/3_097a.jpg,LSim,357.4797799549997,None,357.4797799549997,None,357.4797799549997,None,357.4797799549997,None,357.4797799549997,None,None,,357.4797799549997,None,,,,,,123,,,2022_Jan_09_1244,BLAES_MST_encoding,3.2.4,236.12038344855486,
87,0,87,0,364.52397417800967,None,,,,,,,88,all_images/E_098a.jpg,HSim,361.5111223920103,None,361.5111223920103,None,361.5111223920103,None,361.5111223920103,None,361.5111223920103,None,None,,361.5111223920103,None,,,,,,123,,,2022_Jan_09_1244,BLAES_MST_encoding,3.2.4,236.12038344855486,
88,0,88,0,368.5451741290017,None,,,,,,,89,all_images/4_169a.jpg,HSim,365.5351461530081,None,365.5351461530081,None,365.5351461530081,None,365.5351461530081,None,365.5351461530081,None,None,,365.5351461530081,None,,,,,,123,,,2022_Jan_09_1244,BLAES_MST_encoding,3.2.4,236.12038344855486,
89,0,89,0,372.5714347480098,None,,,,,,,90,all_images/4_029a.jpg,LSim,369.5599917630025,None,369.5599917630025,None,369.5599917630025,None,369.5599917630025,None,369.5599917630025,None,None,,369.5599917630025,None,,,,,,123,,,2022_Jan_09_1244,BLAES_MST_encoding,3.2.4,236.12038344855486,
90,0,90,0,376.5959707770089,None,,,,,,,91,all_images/1_055a.jpg,HSim,373.586085707997,None,373.586085707997,None,373.586085707997,None,373.586085707997,None,373.586085707997,None,f,1.673839549999684,373.586085707997,None,,,,,,123,,,2022_Jan_09_1244,BLAES_MST_encoding,3.2.4,236.12038344855486,
91,0,91,0,380.6165513820015,None,,,,,,,92,all_images/5_143a.jpg,LSim,377.60641254100483,None,377.60641254100483,None,377.60641254100483,None,377.60641254100483,None,377.60641254100483,None,f,0.49347852800565306,377.60641254100483,None,,,,,,123,,,2022_Jan_09_1244,BLAES_MST_encoding,3.2.4,236.12038344855486,
92,0,92,0,384.64180209299957,None,,,,,,,93,all_images/F_081a.jpg,LSim,381.6306408329983,None,381.6306408329983,None,381.6306408329983,None,381.6306408329983,None,381.6306408329983,None,None,,381.6306408329983,None,,,,,,123,,,2022_Jan_09_1244,BLAES_MST_encoding,3.2.4,236.12038344855486,
93,0,93,0,388.6693388400017,None,,,,,,,94,all_images/3_024a.jpg,HSim,385.6566337090044,None,385.6566337090044,None,385.6566337090044,None,385.6566337090044,None,385.6566337090044,None,None,,385.6566337090044,None,,,,,,123,,,2022_Jan_09_1244,BLAES_MST_encoding,3.2.4,236.12038344855486,
94,0,94,0,392.6921377710096,None,,,,,,,95,all_images/1_052a.jpg,LSim,389.68212639700505,None,389.68212639700505,None,389.68212639700505,None,389.68212639700505,None,389.68212639700505,None,None,,389.68212639700505,None,,,,,,123,,,2022_Jan_09_1244,BLAES_MST_encoding,3.2.4,236.12038344855486,
95,0,95,0,396.7176998220093,None,,,,,,,96,all_images/1_014a.jpg,LSim,393.7066604300053,None,393.7066604300053,None,393.7066604300053,None,393.7066604300053,None,393.7066604300053,None,j,0.593266883995966,393.7066604300053,None,,,,,,123,,,2022_Jan_09_1244,BLAES_MST_encoding,3.2.4,236.12038344855486,
96,0,96,0,400.7386915090028,None,,,,,,,97,all_images/2_082a.jpg,HSim,397.72857911800384,None,397.72857911800384,None,397.72857911800384,None,397.72857911800384,None,397.72857911800384,None,None,,397.72857911800384,None,,,,,,123,,,2022_Jan_09_1244,BLAES_MST_encoding,3.2.4,236.12038344855486,
97,0,97,0,404.75975146899873,None,,,,,,,98,all_images/4_178a.jpg,LSim,401.7499181440071,None,401.7499181440071,None,401.7499181440071,None,401.7499181440071,None,401.7499181440071,None,None,,401.7499181440071,None,,,,,,123,,,2022_Jan_09_1244,BLAES_MST_encoding,3.2.4,236.12038344855486,
98,0,98,0,408.7849163119972,None,,,,,,,99,all_images/2_168a.jpg,LSim,405.77410009699815,None,405.77410009699815,None,405.77410009699815,None,405.77410009699815,None,405.77410009699815,None,None,,405.77410009699815,None,,,,,,123,,,2022_Jan_09_1244,BLAES_MST_encoding,3.2.4,236.12038344855486,
99,0,99,0,412.8100572920084,None,,,,,,,100,all_images/5_053a.jpg,HSim,409.798346096999,None,409.798346096999,None,409.798346096999,None,409.798346096999,None,409.798346096999,None,None,,409.798346096999,None,,,,,,123,,,2022_Jan_09_1244,BLAES_MST_encoding,3.2.4,236.12038344855486,
100,0,100,0,416.8323492220079,None,,,,,,,101,all_images/3_032a.jpg,LSim,413.82185591700545,None,413.82185591700545,None,413.82185591700545,None,413.82185591700545,None,413.82185591700545,None,None,,413.82185591700545,None,,,,,,123,,,2022_Jan_09_1244,BLAES_MST_encoding,3.2.4,236.12038344855486,
101,0,101,0,420.85246785399795,None,,,,,,,102,all_images/C_186a.jpg,HSim,417.8426537070045,None,417.8426537070045,None,417.8426537070045,None,417.8426537070045,None,417.8426537070045,None,None,,417.8426537070045,None,,,,,,123,,,2022_Jan_09_1244,BLAES_MST_encoding,3.2.4,236.12038344855486,
102,0,102,0,424.87692001700634,None,,,,,,,103,all_images/1_003a.jpg,HSim,421.86847536500136,None,421.86847536500136,None,421.86847536500136,None,421.86847536500136,None,421.86847536500136,None,None,,421.86847536500136,None,,,,,,123,,,2022_Jan_09_1244,BLAES_MST_encoding,3.2.4,236.12038344855486,
103,0,103,0,428.9035674230108,None,,,,,,,104,all_images/2_095a.jpg,LSim,425.8919216860086,None,425.8919216860086,None,425.8919216860086,None,425.8919216860086,None,425.8919216860086,None,None,,425.8919216860086,None,,,,,,123,,,2022_Jan_09_1244,BLAES_MST_encoding,3.2.4,236.12038344855486,
104,0,104,0,432.9303132260102,None,,,,,,,105,all_images/C_064a.jpg,HSim,429.917109187998,None,429.917109187998,None,429.917109187998,None,429.917109187998,None,429.917109187998,None,None,,429.917109187998,None,,,,,,123,,,2022_Jan_09_1244,BLAES_MST_encoding,3.2.4,236.12038344855486,
105,0,105,0,436.9558492220094,None,,,,,,,106,all_images/4_140a.jpg,LSim,433.94529759800935,None,433.94529759800935,None,433.94529759800935,None,433.94529759800935,None,433.94529759800935,None,f,1.978613860992482,433.94529759800935,None,,,,,,123,,,2022_Jan_09_1244,BLAES_MST_encoding,3.2.4,236.12038344855486,
106,0,106,0,440.98482079600217,None,,,,,,,107,all_images/5_118a.jpg,HSim,437.9723526710004,None,437.9723526710004,None,437.9723526710004,None,437.9723526710004,None,437.9723526710004,None,None,,437.9723526710004,None,,,,,,123,,,2022_Jan_09_1244,BLAES_MST_encoding,3.2.4,236.12038344855486,
107,0,107,0,445.0065188410081,None,,,,,,,108,all_images/F_091a.jpg,HSim,441.99763502900896,None,441.99763502900896,None,441.99763502900896,None,441.99763502900896,None,441.99763502900896,None,None,,441.99763502900896,None,,,,,,123,,,2022_Jan_09_1244,BLAES_MST_encoding,3.2.4,236.12038344855486,
108,0,108,0,449.03157738600567,None,,,,,,,109,all_images/3_109a.jpg,LSim,446.0192852050095,None,446.0192852050095,None,446.0192852050095,None,446.0192852050095,None,446.0192852050095,None,None,,446.0192852050095,None,,,,,,123,,,2022_Jan_09_1244,BLAES_MST_encoding,3.2.4,236.12038344855486,
109,0,109,0,453.05526255200675,None,,,,,,,110,all_images/2_083a.jpg,HSim,450.04406846500933,None,450.04406846500933,None,450.04406846500933,None,450.04406846500933,None,450.04406846500933,None,None,,450.04406846500933,None,,,,,,123,,,2022_Jan_09_1244,BLAES_MST_encoding,3.2.4,236.12038344855486,
110,0,110,0,457.07827359699877,None,,,,,,,111,all_images/E_152a.jpg,HSim,454.06932095400407,None,454.06932095400407,None,454.06932095400407,None,454.06932095400407,None,454.06932095400407,None,f,2.394605823996244,454.06932095400407,None,,,,,,123,,,2022_Jan_09_1244,BLAES_MST_encoding,3.2.4,236.12038344855486,
111,0,111,0,461.1018606380094,None,,,,,,,112,all_images/1_020a.jpg,HSim,458.0918284680083,None,458.0918284680083,None,458.0918284680083,None,458.0918284680083,None,458.0918284680083,None,None,,458.0918284680083,None,,,,,,123,,,2022_Jan_09_1244,BLAES_MST_encoding,3.2.4,236.12038344855486,
112,0,112,0,465.124083326009,None,,,,,,,113,all_images/2_179a.jpg,HSim,462.113327227009,None,462.113327227009,None,462.113327227009,None,462.113327227009,None,462.113327227009,None,None,,462.113327227009,None,,,,,,123,,,2022_Jan_09_1244,BLAES_MST_encoding,3.2.4,236.12038344855486,
113,0,113,0,469.1478112420009,None,,,,,,,114,all_images/4_021a.jpg,HSim,466.13856755400775,None,466.13856755400775,None,466.13856755400775,None,466.13856755400775,None,466.13856755400775,None,None,,466.13856755400775,None,,,,,,123,,,2022_Jan_09_1244,BLAES_MST_encoding,3.2.4,236.12038344855486,
114,0,114,0,473.1713663140108,None,,,,,,,115,all_images/3_045a.jpg,HSim,470.16190268100763,None,470.16190268100763,None,470.16190268100763,None,470.16190268100763,None,470.16190268100763,None,None,,470.16190268100763,None,,,,,,123,,,2022_Jan_09_1244,BLAES_MST_encoding,3.2.4,236.12038344855486,
115,0,115,0,477.19839074600895,None,,,,,,,116,all_images/3_055a.jpg,HSim,474.1865022950078,None,474.1865022950078,None,474.1865022950078,None,474.1865022950078,None,474.1865022950078,None,None,,474.1865022950078,None,,,,,,123,,,2022_Jan_09_1244,BLAES_MST_encoding,3.2.4,236.12038344855486,
116,0,116,0,481.22603424001136,None,,,,,,,117,all_images/4_103a.jpg,HSim,478.2133410469978,None,478.2133410469978,None,478.2133410469978,None,478.2133410469978,None,478.2133410469978,None,None,,478.2133410469978,None,,,,,,123,,,2022_Jan_09_1244,BLAES_MST_encoding,3.2.4,236.12038344855486,
117,0,117,0,485.2521206829988,None,,,,,,,118,all_images/4_184a.jpg,HSim,482.2437251939991,None,482.2437251939991,None,482.2437251939991,None,482.2437251939991,None,482.2437251939991,None,None,,482.2437251939991,None,,,,,,123,,,2022_Jan_09_1244,BLAES_MST_encoding,3.2.4,236.12038344855486,
118,0,118,0,489.2706205959985,None,,,,,,,119,all_images/1_033a.jpg,LSim,486.26201812199724,None,486.26201812199724,None,486.26201812199724,None,486.26201812199724,None,486.26201812199724,None,None,,486.26201812199724,None,,,,,,123,,,2022_Jan_09_1244,BLAES_MST_encoding,3.2.4,236.12038344855486,
119,0,119,0,493.2915375510056,None,,,,,,,120,all_images/D_053a.jpg,LSim,490.28190635899955,None,490.28190635899955,None,490.28190635899955,None,490.28190635899955,None,490.28190635899955,None,None,,490.28190635899955,None,,,,,,123,,,2022_Jan_09_1244,BLAES_MST_encoding,3.2.4,236.12038344855486,
120,0,120,0,497.31874458699895,None,,,,,,,121,all_images/4_154a.jpg,HSim,494.3063797700015,None,494.3063797700015,None,494.3063797700015,None,494.3063797700015,None,494.3063797700015,None,f,1.2415261730056955,494.3063797700015,None,,,,,,123,,,2022_Jan_09_1244,BLAES_MST_encoding,3.2.4,236.12038344855486,
121,0,121,0,501.34275963599794,None,,,,,,,122,all_images/5_029a.jpg,HSim,498.33330548900994,None,498.33330548900994,None,498.33330548900994,None,498.33330548900994,None,498.33330548900994,None,None,,498.33330548900994,None,,,,,,123,,,2022_Jan_09_1244,BLAES_MST_encoding,3.2.4,236.12038344855486,
122,0,122,0,505.36476627000957,None,,,,,,,123,all_images/F_165a.jpg,HSim,502.3549916350021,None,502.3549916350021,None,502.3549916350021,None,502.3549916350021,None,502.3549916350021,None,None,,502.3549916350021,None,,,,,,123,,,2022_Jan_09_1244,BLAES_MST_encoding,3.2.4,236.12038344855486,
123,0,123,0,509.3891620430077,None,,,,,,,124,all_images/2_124a.jpg,LSim,506.3775746050087,None,506.3775746050087,None,506.3775746050087,None,506.3775746050087,None,506.3775746050087,None,None,,506.3775746050087,None,,,,,,123,,,2022_Jan_09_1244,BLAES_MST_encoding,3.2.4,236.12038344855486,
124,0,124,0,513.4135845370038,None,,,,,,,125,all_images/1_168a.jpg,LSim,510.4012258790026,None,510.4012258790026,None,510.4012258790026,None,510.4012258790026,None,510.4012258790026,None,None,,510.4012258790026,None,,,,,,123,,,2022_Jan_09_1244,BLAES_MST_encoding,3.2.4,236.12038344855486,
125,0,125,0,517.4383253179985,None,,,,,,,126,all_images/2_067a.jpg,LSim,514.425738099002,None,514.425738099002,None,514.425738099002,None,514.425738099002,None,514.425738099002,None,None,,514.425738099002,None,,,,,,123,,,2022_Jan_09_1244,BLAES_MST_encoding,3.2.4,236.12038344855486,
126,0,126,0,521.4572787450015,None,,,,,,,127,all_images/5_026a.jpg,LSim,518.4485764319979,None,518.4485764319979,None,518.4485764319979,None,518.4485764319979,None,518.4485764319979,None,None,,518.4485764319979,None,,,,,,123,,,2022_Jan_09_1244,BLAES_MST_encoding,3.2.4,236.12038344855486,
127,0,127,0,525.4765297260019,None,,,,,,,128,all_images/2_034a.jpg,HSim,522.4645000870078,None,522.4645000870078,None,522.4645000870078,None,522.4645000870078,None,522.4645000870078,None,None,,522.4645000870078,None,,,,,,123,,,2022_Jan_09_1244,BLAES_MST_encoding,3.2.4,236.12038344855486,
128,0,128,0,529.4979725140001,None,,,,,,,129,all_images/5_032a.jpg,HSim,526.489678072001,None,526.489678072001,None,526.489678072001,None,526.489678072001,None,526.489678072001,None,None,,526.489678072001,None,,,,,,123,,,2022_Jan_09_1244,BLAES_MST_encoding,3.2.4,236.12038344855486,
129,0,129,0,533.5240407610108,None,,,,,,,130,all_images/E_058a.jpg,LSim,530.5152400660008,None,530.5152400660008,None,530.5152400660008,None,530.5152400660008,None,530.5152400660008,None,None,,530.5152400660008,None,,,,,,123,,,2022_Jan_09_1244,BLAES_MST_encoding,3.2.4,236.12038344855486,
130,0,130,0,537.5466526880045,None,,,,,,,131,all_images/6_176a.jpg,HSim,534.535908359001,None,534.535908359001,None,534.535908359001,None,534.535908359001,None,534.535908359001,None,None,,534.535908359001,None,,,,,,123,,,2022_Jan_09_1244,BLAES_MST_encoding,3.2.4,236.12038344855486,
131,0,131,0,541.5710943010054,None,,,,,,,132,all_images/1_068a.jpg,LSim,538.5598933779984,None,538.5598933779984,None,538.5598933779984,None,538.5598933779984,None,538.5598933779984,None,None,,538.5598933779984,None,,,,,,123,,,2022_Jan_09_1244,BLAES_MST_encoding,3.2.4,236.12038344855486,
132,0,132,0,545.5922768879973,None,,,,,,,133,all_images/4_155a.jpg,LSim,542.5818635809992,None,542.5818635809992,None,542.5818635809992,None,542.5818635809992,None,542.5818635809992,None,None,,542.5818635809992,None,,,,,,123,,,2022_Jan_09_1244,BLAES_MST_encoding,3.2.4,236.12038344855486,
133,0,133,0,549.6146305360016,None,,,,,,,134,all_images/5_111a.jpg,HSim,546.604417317998,None,546.604417317998,None,546.604417317998,None,546.604417317998,None,546.604417317998,None,None,,546.604417317998,None,,,,,,123,,,2022_Jan_09_1244,BLAES_MST_encoding,3.2.4,236.12038344855486,
134,0,134,0,553.6370396700077,None,,,,,,,135,all_images/3_082a.jpg,LSim,550.6276798860054,None,550.6276798860054,None,550.6276798860054,None,550.6276798860054,None,550.6276798860054,None,None,,550.6276798860054,None,,,,,,123,,,2022_Jan_09_1244,BLAES_MST_encoding,3.2.4,236.12038344855486,
135,0,135,0,557.6590539770114,None,,,,,,,136,all_images/3_088a.jpg,LSim,554.6471168940043,None,554.6471168940043,None,554.6471168940043,None,554.6471168940043,None,554.6471168940043,None,None,,554.6471168940043,None,,,,,,123,,,2022_Jan_09_1244,BLAES_MST_encoding,3.2.4,236.12038344855486,
136,0,136,0,561.6842872910056,None,,,,,,,137,all_images/2_048a.jpg,LSim,558.6731987520034,None,558.6731987520034,None,558.6731987520034,None,558.6731987520034,None,558.6731987520034,None,None,,558.6731987520034,None,,,,,,123,,,2022_Jan_09_1244,BLAES_MST_encoding,3.2.4,236.12038344855486,
137,0,137,0,565.707761149999,None,,,,,,,138,all_images/C_157a.jpg,HSim,562.6968773210101,None,562.6968773210101,None,562.6968773210101,None,562.6968773210101,None,562.6968773210101,None,None,,562.6968773210101,None,,,,,,123,,,2022_Jan_09_1244,BLAES_MST_encoding,3.2.4,236.12038344855486,
138,0,138,0,569.7311161990074,None,,,,,,,139,all_images/5_046a.jpg,LSim,566.7202079720009,None,566.7202079720009,None,566.7202079720009,None,566.7202079720009,None,566.7202079720009,None,None,,566.7202079720009,None,,,,,,123,,,2022_Jan_09_1244,BLAES_MST_encoding,3.2.4,236.12038344855486,
139,0,139,0,573.7525961630017,None,,,,,,,140,all_images/4_070a.jpg,LSim,570.7426564570051,None,570.7426564570051,None,570.7426564570051,None,570.7426564570051,None,570.7426564570051,None,None,,570.7426564570051,None,,,,,,123,,,2022_Jan_09_1244,BLAES_MST_encoding,3.2.4,236.12038344855486,
140,0,140,0,577.7766832640045,None,,,,,,,141,all_images/6_026a.jpg,HSim,574.7676225580071,None,574.7676225580071,None,574.7676225580071,None,574.7676225580071,None,574.7676225580071,None,None,,574.7676225580071,None,,,,,,123,,,2022_Jan_09_1244,BLAES_MST_encoding,3.2.4,236.12038344855486,
141,0,141,0,581.8005369480088,None,,,,,,,142,all_images/E_090a.jpg,LSim,578.7906163330044,None,578.7906163330044,None,578.7906163330044,None,578.7906163330044,None,578.7906163330044,None,None,,578.7906163330044,None,,,,,,123,,,2022_Jan_09_1244,BLAES_MST_encoding,3.2.4,236.12038344855486,
142,0,142,0,585.8309433130053,None,,,,,,,143,all_images/2_050a.jpg,LSim,582.8181943939999,None,582.8181943939999,None,582.8181943939999,None,582.8181943939999,None,582.8181943939999,None,None,,582.8181943939999,None,,,,,,123,,,2022_Jan_09_1244,BLAES_MST_encoding,3.2.4,236.12038344855486,
143,0,143,0,589.8549504980037,None,,,,,,,144,all_images/1_096a.jpg,HSim,586.8442775209987,None,586.8442775209987,None,586.8442775209987,None,586.8442775209987,None,586.8442775209987,None,None,,586.8442775209987,None,,,,,,123,,,2022_Jan_09_1244,BLAES_MST_encoding,3.2.4,236.12038344855486,
144,0,144,0,593.8734142680041,None,,,,,,,145,all_images/2_008a.jpg,HSim,590.866844300006,None,590.866844300006,None,590.866844300006,None,590.866844300006,None,590.866844300006,None,None,,590.866844300006,None,,,,,,123,,,2022_Jan_09_1244,BLAES_MST_encoding,3.2.4,236.12038344855486,
145,0,145,0,597.8934552260034,None,,,,,,,146,all_images/3_143a.jpg,HSim,594.884554179007,None,594.884554179007,None,594.884554179007,None,594.884554179007,None,594.884554179007,None,None,,594.884554179007,None,,,,,,123,,,2022_Jan_09_1244,BLAES_MST_encoding,3.2.4,236.12038344855486,
146,0,146,0,601.917667775997,None,,,,,,,147,all_images/2_091a.jpg,HSim,598.9059262380033,None,598.9059262380033,None,598.9059262380033,None,598.9059262380033,None,598.9059262380033,None,None,,598.9059262380033,None,,,,,,123,,,2022_Jan_09_1244,BLAES_MST_encoding,3.2.4,236.12038344855486,
147,0,147,0,605.9407717610011,None,,,,,,,148,all_images/5_049a.jpg,LSim,602.9322527780023,None,602.9322527780023,None,602.9322527780023,None,602.9322527780023,None,602.9322527780023,None,None,,602.9322527780023,None,,,,,,123,,,2022_Jan_09_1244,BLAES_MST_encoding,3.2.4,236.12038344855486,
148,0,148,0,609.9650510150095,None,,,,,,,149,all_images/3_150a.jpg,HSim,606.9530972689972,None,606.9530972689972,None,606.9530972689972,None,606.9530972689972,None,606.9530972689972,None,None,,606.9530972689972,None,,,,,,123,,,2022_Jan_09_1244,BLAES_MST_encoding,3.2.4,236.12038344855486,
149,0,149,0,613.9876918410009,None,,,,,,,150,all_images/6_153a.jpg,HSim,610.9774370420055,None,610.9774370420055,None,610.9774370420055,None,610.9774370420055,None,610.9774370420055,None,None,,610.9774370420055,None,,,,,,123,,,2022_Jan_09_1244,BLAES_MST_encoding,3.2.4,236.12038344855486,
150,0,150,0,618.0096861769998,None,,,,,,,151,all_images/1_035a.jpg,HSim,614.9997015080007,None,614.9997015080007,None,614.9997015080007,None,614.9997015080007,None,614.9997015080007,None,None,,614.9997015080007,None,,,,,,123,,,2022_Jan_09_1244,BLAES_MST_encoding,3.2.4,236.12038344855486,
151,0,151,0,622.0374990749988,None,,,,,,,152,all_images/6_168a.jpg,HSim,619.0248478590074,None,619.0248478590074,None,619.0248478590074,None,619.0248478590074,None,619.0248478590074,None,None,,619.0248478590074,None,,,,,,123,,,2022_Jan_09_1244,BLAES_MST_encoding,3.2.4,236.12038344855486,
152,0,152,0,626.0597846210003,None,,,,,,,153,all_images/2_004a.jpg,LSim,623.047975546011,None,623.047975546011,None,623.047975546011,None,623.047975546011,None,623.047975546011,None,None,,623.047975546011,None,,,,,,123,,,2022_Jan_09_1244,BLAES_MST_encoding,3.2.4,236.12038344855486,
153,0,153,0,630.0847534290078,None,,,,,,,154,all_images/E_172a.jpg,HSim,627.0740950790059,None,627.0740950790059,None,627.0740950790059,None,627.0740950790059,None,627.0740950790059,None,f,2.2378339800052345,627.0740950790059,None,,,,,,123,,,2022_Jan_09_1244,BLAES_MST_encoding,3.2.4,236.12038344855486,
154,0,154,0,634.1102872330084,None,,,,,,,155,all_images/3_136a.jpg,LSim,631.0997769969981,None,631.0997769969981,None,631.0997769969981,None,631.0997769969981,None,631.0997769969981,None,f,2.0601197150099324,631.0997769969981,None,,,,,,123,,,2022_Jan_09_1244,BLAES_MST_encoding,3.2.4,236.12038344855486,
155,0,155,0,638.1373015610006,None,,,,,,,156,all_images/2_005a.jpg,LSim,635.1243958660052,None,635.1243958660052,None,635.1243958660052,None,635.1243958660052,None,635.1243958660052,None,f,0.851527173013892,635.1243958660052,None,,,,,,123,,,2022_Jan_09_1244,BLAES_MST_encoding,3.2.4,236.12038344855486,
156,0,156,0,642.1581081170007,None,,,,,,,157,all_images/1_114a.jpg,HSim,639.1480236470088,None,639.1480236470088,None,639.1480236470088,None,639.1480236470088,None,639.1480236470088,None,f,0.9959036270010984,639.1480236470088,None,,,,,,123,,,2022_Jan_09_1244,BLAES_MST_encoding,3.2.4,236.12038344855486,
157,0,157,0,646.1818263930036,None,,,,,,,158,all_images/2_063a.jpg,HSim,643.1713185090048,None,643.1713185090048,None,643.1713185090048,None,643.1713185090048,None,643.1713185090048,None,None,,643.1713185090048,None,,,,,,123,,,2022_Jan_09_1244,BLAES_MST_encoding,3.2.4,236.12038344855486,
158,0,158,0,650.2087540460052,None,,,,,,,159,all_images/4_036a.jpg,HSim,647.1959052520106,None,647.1959052520106,None,647.1959052520106,None,647.1959052520106,None,647.1959052520106,None,None,,647.1959052520106,None,,,,,,123,,,2022_Jan_09_1244,BLAES_MST_encoding,3.2.4,236.12038344855486,
159,0,159,0,654.2351890459977,None,,,,,,,160,all_images/6_163a.jpg,HSim,651.2230709349969,None,651.2230709349969,None,651.2230709349969,None,651.2230709349969,None,651.2230709349969,None,None,,651.2230709349969,None,,,,,,123,,,2022_Jan_09_1244,BLAES_MST_encoding,3.2.4,236.12038344855486,
160,0,160,0,658.2569992659992,None,,,,,,,161,all_images/2_187a.jpg,HSim,655.2471877100033,None,655.2471877100033,None,655.2471877100033,None,655.2471877100033,None,655.2471877100033,None,None,,655.2471877100033,None,,,,,,123,,,2022_Jan_09_1244,BLAES_MST_encoding,3.2.4,236.12038344855486,
161,0,161,0,662.2822220920061,None,,,,,,,162,all_images/5_064a.jpg,LSim,659.2697041310021,None,659.2697041310021,None,659.2697041310021,None,659.2697041310021,None,659.2697041310021,None,None,,659.2697041310021,None,,,,,,123,,,2022_Jan_09_1244,BLAES_MST_encoding,3.2.4,236.12038344855486,
162,0,162,0,666.3058932670101,None,,,,,,,163,all_images/E_109a.jpg,LSim,663.2951471039996,None,663.2951471039996,None,663.2951471039996,None,663.2951471039996,None,663.2951471039996,None,None,,663.2951471039996,None,,,,,,123,,,2022_Jan_09_1244,BLAES_MST_encoding,3.2.4,236.12038344855486,
163,0,163,0,670.3307114720083,None,,,,,,,164,all_images/3_105a.jpg,LSim,667.320684160004,None,667.320684160004,None,667.320684160004,None,667.320684160004,None,667.320684160004,None,None,,667.320684160004,None,,,,,,123,,,2022_Jan_09_1244,BLAES_MST_encoding,3.2.4,236.12038344855486,
164,0,164,0,674.355318255999,None,,,,,,,165,all_images/C_165a.jpg,HSim,671.3421227910003,None,671.3421227910003,None,671.3421227910003,None,671.3421227910003,None,671.3421227910003,None,None,,671.3421227910003,None,,,,,,123,,,2022_Jan_09_1244,BLAES_MST_encoding,3.2.4,236.12038344855486,
165,0,165,0,678.3796339260007,None,,,,,,,166,all_images/1_113a.jpg,HSim,675.3693528660078,None,675.3693528660078,None,675.3693528660078,None,675.3693528660078,None,675.3693528660078,None,None,,675.3693528660078,None,,,,,,123,,,2022_Jan_09_1244,BLAES_MST_encoding,3.2.4,236.12038344855486,
166,0,166,0,682.4010282640083,None,,,,,,,167,all_images/4_002a.jpg,LSim,679.3897863739985,None,679.3897863739985,None,679.3897863739985,None,679.3897863739985,None,679.3897863739985,None,None,,679.3897863739985,None,,,,,,123,,,2022_Jan_09_1244,BLAES_MST_encoding,3.2.4,236.12038344855486,
167,0,167,0,686.4258829820028,None,,,,,,,168,all_images/2_166a.jpg,LSim,683.4138732060092,None,683.4138732060092,None,683.4138732060092,None,683.4138732060092,None,683.4138732060092,None,None,,683.4138732060092,None,,,,,,123,,,2022_Jan_09_1244,BLAES_MST_encoding,3.2.4,236.12038344855486,
168,0,168,0,690.4497493840026,None,,,,,,,169,all_images/6_142a.jpg,LSim,687.4393812150083,None,687.4393812150083,None,687.4393812150083,None,687.4393812150083,None,687.4393812150083,None,None,,687.4393812150083,None,,,,,,123,,,2022_Jan_09_1244,BLAES_MST_encoding,3.2.4,236.12038344855486,
169,0,169,0,694.4717296309973,None,,,,,,,170,all_images/3_028a.jpg,HSim,691.4604480690032,None,691.4604480690032,None,691.4604480690032,None,691.4604480690032,None,691.4604480690032,None,None,,691.4604480690032,None,,,,,,123,,,2022_Jan_09_1244,BLAES_MST_encoding,3.2.4,236.12038344855486,
170,0,170,0,698.5002345579996,None,,,,,,,171,all_images/2_128a.jpg,LSim,695.4872857180017,None,695.4872857180017,None,695.4872857180017,None,695.4872857180017,None,695.4872857180017,None,None,,695.4872857180017,None,,,,,,123,,,2022_Jan_09_1244,BLAES_MST_encoding,3.2.4,236.12038344855486,
171,0,171,0,702.5221901600016,None,,,,,,,172,all_images/3_155a.jpg,LSim,699.5122009940096,None,699.5122009940096,None,699.5122009940096,None,699.5122009940096,None,699.5122009940096,None,None,,699.5122009940096,None,,,,,,123,,,2022_Jan_09_1244,BLAES_MST_encoding,3.2.4,236.12038344855486,
172,0,172,0,706.5442339690053,None,,,,,,,173,all_images/D_002a.jpg,LSim,703.5331708360027,None,703.5331708360027,None,703.5331708360027,None,703.5331708360027,None,703.5331708360027,None,None,,703.5331708360027,None,,,,,,123,,,2022_Jan_09_1244,BLAES_MST_encoding,3.2.4,236.12038344855486,
173,0,173,0,710.5640633389994,None,,,,,,,174,all_images/D_078a.jpg,LSim,707.552697993,None,707.552697993,None,707.552697993,None,707.552697993,None,707.552697993,None,None,,707.552697993,None,,,,,,123,,,2022_Jan_09_1244,BLAES_MST_encoding,3.2.4,236.12038344855486,
174,0,174,0,714.588763480002,None,,,,,,,175,all_images/4_191a.jpg,LSim,711.5791173920006,None,711.5791173920006,None,711.5791173920006,None,711.5791173920006,None,711.5791173920006,None,None,,711.5791173920006,None,,,,,,123,,,2022_Jan_09_1244,BLAES_MST_encoding,3.2.4,236.12038344855486,
175,0,175,0,718.6092127890006,None,,,,,,,176,all_images/4_139a.jpg,HSim,715.6001280280034,None,715.6001280280034,None,715.6001280280034,None,715.6001280280034,None,715.6001280280034,None,None,,715.6001280280034,None,,,,,,123,,,2022_Jan_09_1244,BLAES_MST_encoding,3.2.4,236.12038344855486,
176,0,176,0,722.6298097820109,None,,,,,,,177,all_images/6_069a.jpg,HSim,719.6194430550095,None,719.6194430550095,None,719.6194430550095,None,719.6194430550095,None,719.6194430550095,None,None,,719.6194430550095,None,,,,,,123,,,2022_Jan_09_1244,BLAES_MST_encoding,3.2.4,236.12038344855486,
177,0,177,0,726.654783364007,None,,,,,,,178,all_images/E_079a.jpg,HSim,723.6450857860036,None,723.6450857860036,None,723.6450857860036,None,723.6450857860036,None,723.6450857860036,None,None,,723.6450857860036,None,,,,,,123,,,2022_Jan_09_1244,BLAES_MST_encoding,3.2.4,236.12038344855486,
178,0,178,0,730.6790245950106,None,,,,,,,179,all_images/6_015a.jpg,HSim,727.6692354980041,None,727.6692354980041,None,727.6692354980041,None,727.6692354980041,None,727.6692354980041,None,None,,727.6692354980041,None,,,,,,123,,,2022_Jan_09_1244,BLAES_MST_encoding,3.2.4,236.12038344855486,
179,0,179,0,734.7058200949978,None,,,,,,,180,all_images/1_192a.jpg,LSim,731.6925721020089,None,731.6925721020089,None,731.6925721020089,None,731.6925721020089,None,731.6925721020089,None,None,,731.6925721020089,None,,,,,,123,,,2022_Jan_09_1244,BLAES_MST_encoding,3.2.4,236.12038344855486,
180,0,180,0,738.7326643480046,None,,,,,,,181,all_images/5_177a.jpg,LSim,735.7202962230076,None,735.7202962230076,None,735.7202962230076,None,735.7202962230076,None,735.7202962230076,None,None,,735.7202962230076,None,,,,,,123,,,2022_Jan_09_1244,BLAES_MST_encoding,3.2.4,236.12038344855486,
181,0,181,0,742.7542034150101,None,,,,,,,182,all_images/4_023a.jpg,LSim,739.7456366320112,None,739.7456366320112,None,739.7456366320112,None,739.7456366320112,None,739.7456366320112,None,None,,739.7456366320112,None,,,,,,123,,,2022_Jan_09_1244,BLAES_MST_encoding,3.2.4,236.12038344855486,
182,0,182,0,746.7798694329977,None,,,,,,,183,all_images/1_119a.jpg,LSim,743.7679544210114,None,743.7679544210114,None,743.7679544210114,None,743.7679544210114,None,743.7679544210114,None,None,,743.7679544210114,None,,,,,,123,,,2022_Jan_09_1244,BLAES_MST_encoding,3.2.4,236.12038344855486,
183,0,183,0,750.8046055950108,None,,,,,,,184,all_images/6_074a.jpg,HSim,747.7933435150044,None,747.7933435150044,None,747.7933435150044,None,747.7933435150044,None,747.7933435150044,None,None,,747.7933435150044,None,,,,,,123,,,2022_Jan_09_1244,BLAES_MST_encoding,3.2.4,236.12038344855486,
184,0,184,0,754.8314009330061,None,,,,,,,185,all_images/D_025a.jpg,HSim,751.8193754439999,None,751.8193754439999,None,751.8193754439999,None,751.8193754439999,None,751.8193754439999,None,None,,751.8193754439999,None,,,,,,123,,,2022_Jan_09_1244,BLAES_MST_encoding,3.2.4,236.12038344855486,
185,0,185,0,758.856786703007,None,,,,,,,186,all_images/2_062a.jpg,LSim,755.844771834003,None,755.844771834003,None,755.844771834003,None,755.844771834003,None,755.844771834003,None,None,,755.844771834003,None,,,,,,123,,,2022_Jan_09_1244,BLAES_MST_encoding,3.2.4,236.12038344855486,
186,0,186,0,762.8810269710084,None,,,,,,,187,all_images/2_045a.jpg,LSim,759.8685611780093,None,759.8685611780093,None,759.8685611780093,None,759.8685611780093,None,759.8685611780093,None,None,,759.8685611780093,None,,,,,,123,,,2022_Jan_09_1244,BLAES_MST_encoding,3.2.4,236.12038344855486,
187,0,187,0,766.9069738429971,None,,,,,,,188,all_images/4_098a.jpg,HSim,763.8945496460074,None,763.8945496460074,None,763.8945496460074,None,763.8945496460074,None,763.8945496460074,None,None,,763.8945496460074,None,,,,,,123,,,2022_Jan_09_1244,BLAES_MST_encoding,3.2.4,236.12038344855486,
188,0,188,0,770.9322424060083,None,,,,,,,189,all_images/5_117a.jpg,HSim,767.9198459970066,None,767.9198459970066,None,767.9198459970066,None,767.9198459970066,None,767.9198459970066,None,None,,767.9198459970066,None,,,,,,123,,,2022_Jan_09_1244,BLAES_MST_encoding,3.2.4,236.12038344855486,
189,0,189,0,774.951004514005,None,,,,,,,190,all_images/3_103a.jpg,LSim,771.9411985460029,None,771.9411985460029,None,771.9411985460029,None,771.9411985460029,None,771.9411985460029,None,None,,771.9411985460029,None,,,,,,123,,,2022_Jan_09_1244,BLAES_MST_encoding,3.2.4,236.12038344855486,
190,0,190,0,778.9739473869995,None,,,,,,,191,all_images/1_175a.jpg,HSim,775.9656083880109,None,775.9656083880109,None,775.9656083880109,None,775.9656083880109,None,775.9656083880109,None,None,,775.9656083880109,None,,,,,,123,,,2022_Jan_09_1244,BLAES_MST_encoding,3.2.4,236.12038344855486,
191,0,191,0,782.9992214390077,None,,,,,,,192,all_images/4_009a.jpg,HSim,779.9861069949984,None,779.9861069949984,None,779.9861069949984,None,779.9861069949984,None,779.9861069949984,None,None,,779.9861069949984,None,,,,,,123,,,2022_Jan_09_1244,BLAES_MST_encoding,3.2.4,236.12038344855486,
192,0,192,0,787.0230488560046,None,,,,,,,193,all_images/4_027a.jpg,HSim,784.0106876580103,None,784.0106876580103,None,784.0106876580103,None,784.0106876580103,None,784.0106876580103,None,None,,784.0106876580103,None,,,,,,123,,,2022_Jan_09_1244,BLAES_MST_encoding,3.2.4,236.12038344855486,
193,0,193,0,791.0476069090073,None,,,,,,,194,all_images/4_135a.jpg,HSim,788.0380849950016,None,788.0380849950016,None,788.0380849950016,None,788.0380849950016,None,788.0380849950016,None,None,,788.0380849950016,None,,,,,,123,,,2022_Jan_09_1244,BLAES_MST_encoding,3.2.4,236.12038344855486,
194,0,194,0,795.0747383090056,None,,,,,,,195,all_images/1_095a.jpg,HSim,792.0616599960049,None,792.0616599960049,None,792.0616599960049,None,792.0616599960049,None,792.0616599960049,None,None,,792.0616599960049,None,,,,,,123,,,2022_Jan_09_1244,BLAES_MST_encoding,3.2.4,236.12038344855486,
195,0,195,0,799.0990512560093,None,,,,,,,196,all_images/4_065a.jpg,HSim,796.086698264,None,796.086698264,None,796.086698264,None,796.086698264,None,796.086698264,None,None,,796.086698264,None,,,,,,123,,,2022_Jan_09_1244,BLAES_MST_encoding,3.2.4,236.12038344855486,
196,0,196,0,803.1235627290007,None,,,,,,,197,all_images/3_072a.jpg,LSim,800.1127094580006,None,800.1127094580006,None,800.1127094580006,None,800.1127094580006,None,800.1127094580006,None,None,,800.1127094580006,None,,,,,,123,,,2022_Jan_09_1244,BLAES_MST_encoding,3.2.4,236.12038344855486,
197,0,197,0,807.1465538570046,None,,,,,,,198,all_images/C_082a.jpg,LSim,804.1376943689975,None,804.1376943689975,None,804.1376943689975,None,804.1376943689975,None,804.1376943689975,None,None,,804.1376943689975,None,,,,,,123,,,2022_Jan_09_1244,BLAES_MST_encoding,3.2.4,236.12038344855486,
198,0,198,0,811.1705483609985,None,,,,,,,199,all_images/3_067a.jpg,HSim,808.1599058150023,None,808.1599058150023,None,808.1599058150023,None,808.1599058150023,None,808.1599058150023,None,None,,808.1599058150023,None,,,,,,123,,,2022_Jan_09_1244,BLAES_MST_encoding,3.2.4,236.12038344855486,
199,0,199,0,815.1968350160023,None,,,,,,,200,all_images/1_076a.jpg,LSim,812.1841518150031,None,812.1841518150031,None,812.1841518150031,None,812.1841518150031,None,812.1841518150031,None,None,,812.1841518150031,None,,,,,,123,,,2022_Jan_09_1244,BLAES_MST_encoding,3.2.4,236.12038344855486,
200,0,200,0,819.2270492450043,None,,,,,,,201,all_images/1_061a.jpg,HSim,816.2139199520025,None,816.2139199520025,None,816.2139199520025,None,816.2139199520025,None,816.2139199520025,None,None,,816.2139199520025,None,,,,,,123,,,2022_Jan_09_1244,BLAES_MST_encoding,3.2.4,236.12038344855486,
201,0,201,0,823.251740118998,None,,,,,,,202,all_images/2_138a.jpg,HSim,820.2395194340061,None,820.2395194340061,None,820.2395194340061,None,820.2395194340061,None,820.2395194340061,None,None,,820.2395194340061,None,,,,,,123,,,2022_Jan_09_1244,BLAES_MST_encoding,3.2.4,236.12038344855486,
202,0,202,0,827.2734313620022,None,,,,,,,203,all_images/5_050a.jpg,HSim,824.2619450220081,None,824.2619450220081,None,824.2619450220081,None,824.2619450220081,None,824.2619450220081,None,None,,824.2619450220081,None,,,,,,123,,,2022_Jan_09_1244,BLAES_MST_encoding,3.2.4,236.12038344855486,
203,0,203,0,831.2956197919993,None,,,,,,,204,all_images/D_136a.jpg,LSim,828.2859124160022,None,828.2859124160022,None,828.2859124160022,None,828.2859124160022,None,828.2859124160022,None,None,,828.2859124160022,None,,,,,,123,,,2022_Jan_09_1244,BLAES_MST_encoding,3.2.4,236.12038344855486,
204,0,204,0,835.3201203400095,None,,,,,,,205,all_images/3_131a.jpg,HSim,832.3092902640055,None,832.3092902640055,None,832.3092902640055,None,832.3092902640055,None,832.3092902640055,None,None,,832.3092902640055,None,,,,,,123,,,2022_Jan_09_1244,BLAES_MST_encoding,3.2.4,236.12038344855486,
205,0,205,0,839.3442151240015,None,,,,,,,206,all_images/3_190a.jpg,LSim,836.3332747430104,None,836.3332747430104,None,836.3332747430104,None,836.3332747430104,None,836.3332747430104,None,None,,836.3332747430104,None,,,,,,123,,,2022_Jan_09_1244,BLAES_MST_encoding,3.2.4,236.12038344855486,
206,0,206,0,843.3686361639993,None,,,,,,,207,all_images/1_118a.jpg,HSim,840.3567529959982,None,840.3567529959982,None,840.3567529959982,None,840.3567529959982,None,840.3567529959982,None,None,,840.3567529959982,None,,,,,,123,,,2022_Jan_09_1244,BLAES_MST_encoding,3.2.4,236.12038344855486,
207,0,207,0,847.3938441100036,None,,,,,,,208,all_images/1_102a.jpg,HSim,844.3808455980034,None,844.3808455980034,None,844.3808455980034,None,844.3808455980034,None,844.3808455980034,None,None,,844.3808455980034,None,,,,,,123,,,2022_Jan_09_1244,BLAES_MST_encoding,3.2.4,236.12038344855486,
208,0,208,0,851.4133384640008,None,,,,,,,209,all_images/4_173a.jpg,LSim,848.4042323680042,None,848.4042323680042,None,848.4042323680042,None,848.4042323680042,None,848.4042323680042,None,None,,848.4042323680042,None,,,,,,123,,,2022_Jan_09_1244,BLAES_MST_encoding,3.2.4,236.12038344855486,
209,0,209,0,855.4366159920028,None,,,,,,,210,all_images/6_094a.jpg,LSim,852.4279991560034,None,852.4279991560034,None,852.4279991560034,None,852.4279991560034,None,852.4279991560034,None,None,,852.4279991560034,None,,,,,,123,,,2022_Jan_09_1244,BLAES_MST_encoding,3.2.4,236.12038344855486,
210,0,210,0,859.4606368240056,None,,,,,,,211,all_images/6_173a.jpg,HSim,856.4483533360035,None,856.4483533360035,None,856.4483533360035,None,856.4483533360035,None,856.4483533360035,None,None,,856.4483533360035,None,,,,,,123,,,2022_Jan_09_1244,BLAES_MST_encoding,3.2.4,236.12038344855486,
211,0,211,0,863.4826961930085,None,,,,,,,212,all_images/5_082a.jpg,HSim,860.4739982199972,None,860.4739982199972,None,860.4739982199972,None,860.4739982199972,None,860.4739982199972,None,None,,860.4739982199972,None,,,,,,123,,,2022_Jan_09_1244,BLAES_MST_encoding,3.2.4,236.12038344855486,
212,0,212,0,867.5027768180007,None,,,,,,,213,all_images/5_093a.jpg,LSim,864.4912521360093,None,864.4912521360093,None,864.4912521360093,None,864.4912521360093,None,864.4912521360093,None,None,,864.4912521360093,None,,,,,,123,,,2022_Jan_09_1244,BLAES_MST_encoding,3.2.4,236.12038344855486,
213,0,213,0,871.5241203300102,None,,,,,,,214,all_images/5_154a.jpg,LSim,868.51526030901,None,868.51526030901,None,868.51526030901,None,868.51526030901,None,868.51526030901,None,None,,868.51526030901,None,,,,,,123,,,2022_Jan_09_1244,BLAES_MST_encoding,3.2.4,236.12038344855486,
214,0,214,0,875.549948372005,None,,,,,,,215,all_images/E_032a.jpg,HSim,872.5412473500037,None,872.5412473500037,None,872.5412473500037,None,872.5412473500037,None,872.5412473500037,None,None,,872.5412473500037,None,,,,,,123,,,2022_Jan_09_1244,BLAES_MST_encoding,3.2.4,236.12038344855486,
215,0,215,0,879.5722035470098,None,,,,,,,216,all_images/2_176a.jpg,LSim,876.5633444770065,None,876.5633444770065,None,876.5633444770065,None,876.5633444770065,None,876.5633444770065,None,None,,876.5633444770065,None,,,,,,123,,,2022_Jan_09_1244,BLAES_MST_encoding,3.2.4,236.12038344855486,
216,0,216,0,883.5987498480099,None,,,,,,,217,all_images/4_089a.jpg,LSim,880.5862232080108,None,880.5862232080108,None,880.5862232080108,None,880.5862232080108,None,880.5862232080108,None,None,,880.5862232080108,None,,,,,,123,,,2022_Jan_09_1244,BLAES_MST_encoding,3.2.4,236.12038344855486,
217,0,217,0,887.6203784170066,None,,,,,,,218,all_images/2_070a.jpg,LSim,884.6087842179986,None,884.6087842179986,None,884.6087842179986,None,884.6087842179986,None,884.6087842179986,None,None,,884.6087842179986,None,,,,,,123,,,2022_Jan_09_1244,BLAES_MST_encoding,3.2.4,236.12038344855486,
218,0,218,0,891.6533124319976,None,,,,,,,219,all_images/4_190a.jpg,LSim,888.6425864990015,None,888.6425864990015,None,888.6425864990015,None,888.6425864990015,None,888.6425864990015,None,None,,888.6425864990015,None,,,,,,123,,,2022_Jan_09_1244,BLAES_MST_encoding,3.2.4,236.12038344855486,
219,0,219,0,895.674524809001,None,,,,,,,220,all_images/1_088a.jpg,LSim,892.6640426810045,None,892.6640426810045,None,892.6640426810045,None,892.6640426810045,None,892.6640426810045,None,None,,892.6640426810045,None,,,,,,123,,,2022_Jan_09_1244,BLAES_MST_encoding,3.2.4,236.12038344855486,
220,0,220,0,899.6972904130089,None,,,,,,,221,all_images/E_089a.jpg,LSim,896.6868785850093,None,896.6868785850093,None,896.6868785850093,None,896.6868785850093,None,896.6868785850093,None,None,,896.6868785850093,None,,,,,,123,,,2022_Jan_09_1244,BLAES_MST_encoding,3.2.4,236.12038344855486,
221,0,221,0,903.7199344260007,None,,,,,,,222,all_images/5_030a.jpg,LSim,900.7090452240082,None,900.7090452240082,None,900.7090452240082,None,900.7090452240082,None,900.7090452240082,None,None,,900.7090452240082,None,,,,,,123,,,2022_Jan_09_1244,BLAES_MST_encoding,3.2.4,236.12038344855486,
222,0,222,0,907.7440047359996,None,,,,,,,223,all_images/1_048a.jpg,LSim,904.7341850850062,None,904.7341850850062,None,904.7341850850062,None,904.7341850850062,None,904.7341850850062,None,None,,904.7341850850062,None,,,,,,123,,,2022_Jan_09_1244,BLAES_MST_encoding,3.2.4,236.12038344855486,
223,0,223,0,911.7689377700008,None,,,,,,,224,all_images/1_101a.jpg,LSim,908.7569809380075,None,908.7569809380075,None,908.7569809380075,None,908.7569809380075,None,908.7569809380075,None,None,,908.7569809380075,None,,,,,,123,,,2022_Jan_09_1244,BLAES_MST_encoding,3.2.4,236.12038344855486,
224,0,224,0,915.7964191939973,None,,,,,,,225,all_images/2_022a.jpg,LSim,912.7853483759973,None,912.7853483759973,None,912.7853483759973,None,912.7853483759973,None,912.7853483759973,None,None,,912.7853483759973,None,,,,,,123,,,2022_Jan_09_1244,BLAES_MST_encoding,3.2.4,236.12038344855486,
225,0,225,0,919.8216895390069,None,,,,,,,226,all_images/4_094a.jpg,HSim,916.809592065998,None,916.809592065998,None,916.809592065998,None,916.809592065998,None,916.809592065998,None,None,,916.809592065998,None,,,,,,123,,,2022_Jan_09_1244,BLAES_MST_encoding,3.2.4,236.12038344855486,
226,0,226,0,923.8477611080016,None,,,,,,,227,all_images/2_133a.jpg,HSim,920.8362814069988,None,920.8362814069988,None,920.8362814069988,None,920.8362814069988,None,920.8362814069988,None,None,,920.8362814069988,None,,,,,,123,,,2022_Jan_09_1244,BLAES_MST_encoding,3.2.4,236.12038344855486,
227,0,227,0,927.8726747080073,None,,,,,,,228,all_images/6_133a.jpg,HSim,924.8623141850112,None,924.8623141850112,None,924.8623141850112,None,924.8623141850112,None,924.8623141850112,None,None,,924.8623141850112,None,,,,,,123,,,2022_Jan_09_1244,BLAES_MST_encoding,3.2.4,236.12038344855486,
228,0,228,0,931.8957340780034,None,,,,,,,229,all_images/5_163a.jpg,LSim,928.8848986700032,None,928.8848986700032,None,928.8848986700032,None,928.8848986700032,None,928.8848986700032,None,None,,928.8848986700032,None,,,,,,123,,,2022_Jan_09_1244,BLAES_MST_encoding,3.2.4,236.12038344855486,
229,0,229,0,935.9207038650056,None,,,,,,,230,all_images/5_123a.jpg,LSim,932.9080097390106,None,932.9080097390106,None,932.9080097390106,None,932.9080097390106,None,932.9080097390106,None,None,,932.9080097390106,None,,,,,,123,,,2022_Jan_09_1244,BLAES_MST_encoding,3.2.4,236.12038344855486,
230,0,230,0,939.9430293620098,None,,,,,,,231,all_images/1_161a.jpg,HSim,936.9311047140072,None,936.9311047140072,None,936.9311047140072,None,936.9311047140072,None,936.9311047140072,None,None,,936.9311047140072,None,,,,,,123,,,2022_Jan_09_1244,BLAES_MST_encoding,3.2.4,236.12038344855486,
231,0,231,0,943.9694334670057,None,,,,,,,232,all_images/6_119a.jpg,HSim,940.9571366160089,None,940.9571366160089,None,940.9571366160089,None,940.9571366160089,None,940.9571366160089,None,None,,940.9571366160089,None,,,,,,123,,,2022_Jan_09_1244,BLAES_MST_encoding,3.2.4,236.12038344855486,
232,0,232,0,947.9951300300017,None,,,,,,,233,all_images/3_081a.jpg,LSim,944.9834131680109,None,944.9834131680109,None,944.9834131680109,None,944.9834131680109,None,944.9834131680109,None,None,,944.9834131680109,None,,,,,,123,,,2022_Jan_09_1244,BLAES_MST_encoding,3.2.4,236.12038344855486,
233,0,233,0,952.0209785860061,None,,,,,,,234,all_images/2_054a.jpg,HSim,949.0093707370106,None,949.0093707370106,None,949.0093707370106,None,949.0093707370106,None,949.0093707370106,None,None,,949.0093707370106,None,,,,,,123,,,2022_Jan_09_1244,BLAES_MST_encoding,3.2.4,236.12038344855486,
234,0,234,0,956.044593041006,None,,,,,,,235,all_images/F_038a.jpg,LSim,953.0333819009975,None,953.0333819009975,None,953.0333819009975,None,953.0333819009975,None,953.0333819009975,None,None,,953.0333819009975,None,,,,,,123,,,2022_Jan_09_1244,BLAES_MST_encoding,3.2.4,236.12038344855486,
235,0,235,0,960.0675804650091,None,,,,,,,236,all_images/3_077a.jpg,LSim,957.058867906002,None,957.058867906002,None,957.058867906002,None,957.058867906002,None,957.058867906002,None,None,,957.058867906002,None,,,,,,123,,,2022_Jan_09_1244,BLAES_MST_encoding,3.2.4,236.12038344855486,
236,0,236,0,964.0869956110109,None,,,,,,,237,all_images/5_011a.jpg,HSim,961.0780574360106,None,961.0780574360106,None,961.0780574360106,None,961.0780574360106,None,961.0780574360106,None,None,,961.0780574360106,None,,,,,,123,,,2022_Jan_09_1244,BLAES_MST_encoding,3.2.4,236.12038344855486,
237,0,237,0,968.1102917210083,None,,,,,,,238,all_images/E_022a.jpg,HSim,965.1006010319979,None,965.1006010319979,None,965.1006010319979,None,965.1006010319979,None,965.1006010319979,None,None,,965.1006010319979,None,,,,,,123,,,2022_Jan_09_1244,BLAES_MST_encoding,3.2.4,236.12038344855486,
238,0,238,0,972.135518769006,None,,,,,,,239,all_images/6_075a.jpg,LSim,969.1233824540104,None,969.1233824540104,None,969.1233824540104,None,969.1233824540104,None,969.1233824540104,None,None,,969.1233824540104,None,,,,,,123,,,2022_Jan_09_1244,BLAES_MST_encoding,3.2.4,236.12038344855486,
239,0,239,0,976.1560533489974,None,,,,,,,240,all_images/5_186a.jpg,HSim,973.1457420980005,None,973.1457420980005,None,973.1457420980005,None,973.1457420980005,None,973.1457420980005,None,None,,973.1457420980005,None,,,,,,123,,,2022_Jan_09_1244,BLAES_MST_encoding,3.2.4,236.12038344855486,
240,0,240,0,980.1805906030058,None,,,,,,,241,all_images/5_042a.jpg,HSim,977.171777014999,None,977.171777014999,None,977.171777014999,None,977.171777014999,None,977.171777014999,None,None,,977.171777014999,None,,,,,,123,,,2022_Jan_09_1244,BLAES_MST_encoding,3.2.4,236.12038344855486,
241,0,241,0,984.2059260850074,None,,,,,,,242,all_images/E_112a.jpg,LSim,981.1956289630034,None,981.1956289630034,None,981.1956289630034,None,981.1956289630034,None,981.1956289630034,None,None,,981.1956289630034,None,,,,,,123,,,2022_Jan_09_1244,BLAES_MST_encoding,3.2.4,236.12038344855486,
242,0,242,0,988.230635675005,None,,,,,,,243,all_images/C_171a.jpg,HSim,985.2178304929985,None,985.2178304929985,None,985.2178304929985,None,985.2178304929985,None,985.2178304929985,None,None,,985.2178304929985,None,,,,,,123,,,2022_Jan_09_1244,BLAES_MST_encoding,3.2.4,236.12038344855486,
243,0,243,0,992.2526671770029,None,,,,,,,244,all_images/1_036a.jpg,HSim,989.2423499150027,None,989.2423499150027,None,989.2423499150027,None,989.2423499150027,None,989.2423499150027,None,None,,989.2423499150027,None,,,,,,123,,,2022_Jan_09_1244,BLAES_MST_encoding,3.2.4,236.12038344855486,
244,0,244,0,996.2755646580044,None,,,,,,,245,all_images/1_130a.jpg,HSim,993.2649102830037,None,993.2649102830037,None,993.2649102830037,None,993.2649102830037,None,993.2649102830037,None,None,,993.2649102830037,None,,,,,,123,,,2022_Jan_09_1244,BLAES_MST_encoding,3.2.4,236.12038344855486,
245,0,245,0,1000.3002108290093,None,,,,,,,246,all_images/2_058a.jpg,HSim,997.2885056240048,None,997.2885056240048,None,997.2885056240048,None,997.2885056240048,None,997.2885056240048,None,None,,997.2885056240048,None,,,,,,123,,,2022_Jan_09_1244,BLAES_MST_encoding,3.2.4,236.12038344855486,
246,0,246,0,1004.326388403002,None,,,,,,,247,all_images/6_003a.jpg,LSim,1001.315652972,None,1001.315652972,None,1001.315652972,None,1001.315652972,None,1001.315652972,None,None,,1001.315652972,None,,,,,,123,,,2022_Jan_09_1244,BLAES_MST_encoding,3.2.4,236.12038344855486,
247,0,247,0,1008.3502026720089,None,,,,,,,248,all_images/1_144a.jpg,HSim,1005.3391146560025,None,1005.3391146560025,None,1005.3391146560025,None,1005.3391146560025,None,1005.3391146560025,None,None,,1005.3391146560025,None,,,,,,123,,,2022_Jan_09_1244,BLAES_MST_encoding,3.2.4,236.12038344855486,
248,0,248,0,1012.3731663920044,None,,,,,,,249,all_images/3_015a.jpg,HSim,1009.3641803540086,None,1009.3641803540086,None,1009.3641803540086,None,1009.3641803540086,None,1009.3641803540086,None,None,,1009.3641803540086,None,,,,,,123,,,2022_Jan_09_1244,BLAES_MST_encoding,3.2.4,236.12038344855486,
249,0,249,0,1016.3990331530076,None,,,,,,,250,all_images/6_031a.jpg,LSim,1013.3897825890017,None,1013.3897825890017,None,1013.3897825890017,None,1013.3897825890017,None,1013.3897825890017,None,None,,1013.3897825890017,None,,,,,,123,,,2022_Jan_09_1244,BLAES_MST_encoding,3.2.4,236.12038344855486,
,,,,,,,,,,,,,,,,,,,,,,,,,,,,,1017.4039544270054,None,None,1017.4039544270054,None,123,,,2022_Jan_09_1244,BLAES_MST_encoding,3.2.4,236.12038344855486,
