study_trials.thisRepN,study_trials.thisTrialN,study_trials.thisN,study_trials.thisIndex,text_14.started,text_14.stopped,study_instructions.started,study_instructions.stopped,study_instr_resp.keys,study_instr_resp.rt,study_instr_resp.started,study_instr_resp.stopped,StudyTrial,StudyImage,Condition,study_outdoor_selected.started,study_outdoor_selected.stopped,study_outdoor.started,study_outdoor.stopped,study_indoor_selected.started,study_indoor_selected.stopped,study_indoor.started,study_indoor.stopped,study_image_shown.started,study_image_shown.stopped,study_resp.keys,study_resp.started,study_resp.stopped,participant,First name,Last name,date,expName,psychopyVersion,frameRate,
,,,,6.5597465809987625,None,7.5640137559967116,None,space,4.093479015995399,7.5640137559967116,None,,,,,,,,,,,,,,,,,999,,,2022_Jan_09_1316,BLAES_MST_encoding,3.2.4,235.7460400380895,
0,0,0,0,14.688965483001084,None,,,,,,,1,all_images/6_068a.jpg,LSim,11.677484410000034,None,11.677484410000034,None,11.677484410000034,None,11.677484410000034,None,11.677484410000034,None,None,11.677484410000034,None,999,,,2022_Jan_09_1316,BLAES_MST_encoding,3.2.4,235.7460400380895,
1,0,1,0,18.712138743998366,None,,,,,,,2,all_images/2_048a.jpg,LSim,15.701661188999424,None,15.701661188999424,None,15.701661188999424,None,15.701661188999424,None,15.701661188999424,None,None,15.701661188999424,None,999,,,2022_Jan_09_1316,BLAES_MST_encoding,3.2.4,235.7460400380895,
2,0,2,0,22.734746329995687,None,,,,,,,3,all_images/4_079a.jpg,LSim,19.72352081500867,None,19.72352081500867,None,19.72352081500867,None,19.72352081500867,None,19.72352081500867,None,None,19.72352081500867,None,999,,,2022_Jan_09_1316,BLAES_MST_encoding,3.2.4,235.7460400380895,
3,0,3,0,26.75901069599786,None,,,,,,,4,all_images/2_082a.jpg,HSim,23.74583938199794,None,23.74583938199794,None,23.74583938199794,None,23.74583938199794,None,23.74583938199794,None,None,23.74583938199794,None,999,,,2022_Jan_09_1316,BLAES_MST_encoding,3.2.4,235.7460400380895,
4,0,4,0,30.779667780007003,None,,,,,,,5,all_images/6_153a.jpg,HSim,27.769796645006863,None,27.769796645006863,None,27.769796645006863,None,27.769796645006863,None,27.769796645006863,None,None,27.769796645006863,None,999,,,2022_Jan_09_1316,BLAES_MST_encoding,3.2.4,235.7460400380895,
5,0,5,0,34.80031384700851,None,,,,,,,6,all_images/1_052a.jpg,LSim,31.78922375300317,None,31.78922375300317,None,31.78922375300317,None,31.78922375300317,None,31.78922375300317,None,None,31.78922375300317,None,999,,,2022_Jan_09_1316,BLAES_MST_encoding,3.2.4,235.7460400380895,
6,0,6,0,38.82698370500293,None,,,,,,,7,all_images/4_125a.jpg,LSim,35.81677147500159,None,35.81677147500159,None,35.81677147500159,None,35.81677147500159,None,35.81677147500159,None,None,35.81677147500159,None,999,,,2022_Jan_09_1316,BLAES_MST_encoding,3.2.4,235.7460400380895,
7,0,7,0,42.85045821599488,None,,,,,,,8,all_images/1_032a.jpg,LSim,39.840204009000445,None,39.840204009000445,None,39.840204009000445,None,39.840204009000445,None,39.840204009000445,None,None,39.840204009000445,None,999,,,2022_Jan_09_1316,BLAES_MST_encoding,3.2.4,235.7460400380895,
8,0,8,0,46.87541796799633,None,,,,,,,9,all_images/C_064a.jpg,HSim,43.86387079900305,None,43.86387079900305,None,43.86387079900305,None,43.86387079900305,None,43.86387079900305,None,None,43.86387079900305,None,999,,,2022_Jan_09_1316,BLAES_MST_encoding,3.2.4,235.7460400380895,
9,0,9,0,50.89329565600201,None,,,,,,,10,all_images/E_079a.jpg,HSim,47.8846496650076,None,47.8846496650076,None,47.8846496650076,None,47.8846496650076,None,47.8846496650076,None,None,47.8846496650076,None,999,,,2022_Jan_09_1316,BLAES_MST_encoding,3.2.4,235.7460400380895,
10,0,10,0,54.91722869500518,None,,,,,,,11,all_images/C_173a.jpg,LSim,51.904763097001705,None,51.904763097001705,None,51.904763097001705,None,51.904763097001705,None,51.904763097001705,None,None,51.904763097001705,None,999,,,2022_Jan_09_1316,BLAES_MST_encoding,3.2.4,235.7460400380895,
11,0,11,0,58.94188964400382,None,,,,,,,12,all_images/2_077a.jpg,HSim,55.9292459779972,None,55.9292459779972,None,55.9292459779972,None,55.9292459779972,None,55.9292459779972,None,None,55.9292459779972,None,999,,,2022_Jan_09_1316,BLAES_MST_encoding,3.2.4,235.7460400380895,
12,0,12,0,62.96579666499747,None,,,,,,,13,all_images/2_169a.jpg,HSim,59.954211076998035,None,59.954211076998035,None,59.954211076998035,None,59.954211076998035,None,59.954211076998035,None,None,59.954211076998035,None,999,,,2022_Jan_09_1316,BLAES_MST_encoding,3.2.4,235.7460400380895,
13,0,13,0,66.98761711899715,None,,,,,,,14,all_images/C_023a.jpg,HSim,63.975780744003714,None,63.975780744003714,None,63.975780744003714,None,63.975780744003714,None,63.975780744003714,None,None,63.975780744003714,None,999,,,2022_Jan_09_1316,BLAES_MST_encoding,3.2.4,235.7460400380895,
14,0,14,0,71.01018872500572,None,,,,,,,15,all_images/3_106a.jpg,LSim,67.99865667699487,None,67.99865667699487,None,67.99865667699487,None,67.99865667699487,None,67.99865667699487,None,None,67.99865667699487,None,999,,,2022_Jan_09_1316,BLAES_MST_encoding,3.2.4,235.7460400380895,
15,0,15,0,75.03262547400664,None,,,,,,,16,all_images/F_045a.jpg,LSim,72.02391460200306,None,72.02391460200306,None,72.02391460200306,None,72.02391460200306,None,72.02391460200306,None,None,72.02391460200306,None,999,,,2022_Jan_09_1316,BLAES_MST_encoding,3.2.4,235.7460400380895,
16,0,16,0,79.06067734099634,None,,,,,,,17,all_images/1_153a.jpg,HSim,76.04803524400631,None,76.04803524400631,None,76.04803524400631,None,76.04803524400631,None,76.04803524400631,None,None,76.04803524400631,None,999,,,2022_Jan_09_1316,BLAES_MST_encoding,3.2.4,235.7460400380895,
17,0,17,0,83.08442571399792,None,,,,,,,18,all_images/1_084a.jpg,LSim,80.07442934400751,None,80.07442934400751,None,80.07442934400751,None,80.07442934400751,None,80.07442934400751,None,None,80.07442934400751,None,999,,,2022_Jan_09_1316,BLAES_MST_encoding,3.2.4,235.7460400380895,
18,0,18,0,87.10987173600006,None,,,,,,,19,all_images/3_075a.jpg,LSim,84.09721960600291,None,84.09721960600291,None,84.09721960600291,None,84.09721960600291,None,84.09721960600291,None,None,84.09721960600291,None,999,,,2022_Jan_09_1316,BLAES_MST_encoding,3.2.4,235.7460400380895,
19,0,19,0,91.13430498000525,None,,,,,,,20,all_images/2_166a.jpg,LSim,88.12304427300114,None,88.12304427300114,None,88.12304427300114,None,88.12304427300114,None,88.12304427300114,None,None,88.12304427300114,None,999,,,2022_Jan_09_1316,BLAES_MST_encoding,3.2.4,235.7460400380895,
20,0,20,0,95.15686852499493,None,,,,,,,21,all_images/F_190a.jpg,LSim,92.14765450899722,None,92.14765450899722,None,92.14765450899722,None,92.14765450899722,None,92.14765450899722,None,None,92.14765450899722,None,999,,,2022_Jan_09_1316,BLAES_MST_encoding,3.2.4,235.7460400380895,
21,0,21,0,99.18160599700059,None,,,,,,,22,all_images/D_126a.jpg,LSim,96.16915506799705,None,96.16915506799705,None,96.16915506799705,None,96.16915506799705,None,96.16915506799705,None,None,96.16915506799705,None,999,,,2022_Jan_09_1316,BLAES_MST_encoding,3.2.4,235.7460400380895,
22,0,22,0,103.20491052600846,None,,,,,,,23,all_images/2_002a.jpg,LSim,100.19360573300219,None,100.19360573300219,None,100.19360573300219,None,100.19360573300219,None,100.19360573300219,None,None,100.19360573300219,None,999,,,2022_Jan_09_1316,BLAES_MST_encoding,3.2.4,235.7460400380895,
23,0,23,0,107.22706250399642,None,,,,,,,24,all_images/2_180a.jpg,HSim,104.21757957800583,None,104.21757957800583,None,104.21757957800583,None,104.21757957800583,None,104.21757957800583,None,None,104.21757957800583,None,999,,,2022_Jan_09_1316,BLAES_MST_encoding,3.2.4,235.7460400380895,
24,0,24,0,111.25056006299565,None,,,,,,,25,all_images/5_028a.jpg,HSim,108.23908848200517,None,108.23908848200517,None,108.23908848200517,None,108.23908848200517,None,108.23908848200517,None,None,108.23908848200517,None,999,,,2022_Jan_09_1316,BLAES_MST_encoding,3.2.4,235.7460400380895,
25,0,25,0,115.27041296000243,None,,,,,,,26,all_images/1_117a.jpg,HSim,112.26037808100227,None,112.26037808100227,None,112.26037808100227,None,112.26037808100227,None,112.26037808100227,None,None,112.26037808100227,None,999,,,2022_Jan_09_1316,BLAES_MST_encoding,3.2.4,235.7460400380895,
26,0,26,0,119.29323537299933,None,,,,,,,27,all_images/2_144a.jpg,HSim,116.28443360100209,None,116.28443360100209,None,116.28443360100209,None,116.28443360100209,None,116.28443360100209,None,None,116.28443360100209,None,999,,,2022_Jan_09_1316,BLAES_MST_encoding,3.2.4,235.7460400380895,
27,0,27,0,123.3165006670024,None,,,,,,,28,all_images/3_117a.jpg,HSim,120.30344981700182,None,120.30344981700182,None,120.30344981700182,None,120.30344981700182,None,120.30344981700182,None,None,120.30344981700182,None,999,,,2022_Jan_09_1316,BLAES_MST_encoding,3.2.4,235.7460400380895,
28,0,28,0,127.34145192800497,None,,,,,,,29,all_images/1_097a.jpg,HSim,124.32934502800344,None,124.32934502800344,None,124.32934502800344,None,124.32934502800344,None,124.32934502800344,None,None,124.32934502800344,None,999,,,2022_Jan_09_1316,BLAES_MST_encoding,3.2.4,235.7460400380895,
29,0,29,0,131.36323804700805,None,,,,,,,30,all_images/3_188a.jpg,LSim,128.35402914400038,None,128.35402914400038,None,128.35402914400038,None,128.35402914400038,None,128.35402914400038,None,None,128.35402914400038,None,999,,,2022_Jan_09_1316,BLAES_MST_encoding,3.2.4,235.7460400380895,
30,0,30,0,135.38835178600857,None,,,,,,,31,all_images/1_101a.jpg,LSim,132.3768336810026,None,132.3768336810026,None,132.3768336810026,None,132.3768336810026,None,132.3768336810026,None,None,132.3768336810026,None,999,,,2022_Jan_09_1316,BLAES_MST_encoding,3.2.4,235.7460400380895,
31,0,31,0,139.41505706300086,None,,,,,,,32,all_images/F_153a.jpg,HSim,136.40162030700594,None,136.40162030700594,None,136.40162030700594,None,136.40162030700594,None,136.40162030700594,None,None,136.40162030700594,None,999,,,2022_Jan_09_1316,BLAES_MST_encoding,3.2.4,235.7460400380895,
32,0,32,0,143.43945434900525,None,,,,,,,33,all_images/6_102a.jpg,LSim,140.4276213300036,None,140.4276213300036,None,140.4276213300036,None,140.4276213300036,None,140.4276213300036,None,None,140.4276213300036,None,999,,,2022_Jan_09_1316,BLAES_MST_encoding,3.2.4,235.7460400380895,
33,0,33,0,147.4604000190011,None,,,,,,,34,all_images/2_068a.jpg,HSim,144.4515987939958,None,144.4515987939958,None,144.4515987939958,None,144.4515987939958,None,144.4515987939958,None,None,144.4515987939958,None,999,,,2022_Jan_09_1316,BLAES_MST_encoding,3.2.4,235.7460400380895,
34,0,34,0,151.48801552399527,None,,,,,,,35,all_images/E_038a.jpg,HSim,148.47659812199709,None,148.47659812199709,None,148.47659812199709,None,148.47659812199709,None,148.47659812199709,None,None,148.47659812199709,None,999,,,2022_Jan_09_1316,BLAES_MST_encoding,3.2.4,235.7460400380895,
35,0,35,0,155.51288206000754,None,,,,,,,36,all_images/3_109a.jpg,LSim,152.50008976800018,None,152.50008976800018,None,152.50008976800018,None,152.50008976800018,None,152.50008976800018,None,None,152.50008976800018,None,999,,,2022_Jan_09_1316,BLAES_MST_encoding,3.2.4,235.7460400380895,
36,0,36,0,159.53856296099548,None,,,,,,,37,all_images/5_174a.jpg,LSim,156.52538396100863,None,156.52538396100863,None,156.52538396100863,None,156.52538396100863,None,156.52538396100863,None,None,156.52538396100863,None,999,,,2022_Jan_09_1316,BLAES_MST_encoding,3.2.4,235.7460400380895,
37,0,37,0,163.55761980600073,None,,,,,,,38,all_images/6_057a.jpg,LSim,160.54809520799608,None,160.54809520799608,None,160.54809520799608,None,160.54809520799608,None,160.54809520799608,None,None,160.54809520799608,None,999,,,2022_Jan_09_1316,BLAES_MST_encoding,3.2.4,235.7460400380895,
38,0,38,0,167.5808317589981,None,,,,,,,39,all_images/1_159a.jpg,HSim,164.56829418499547,None,164.56829418499547,None,164.56829418499547,None,164.56829418499547,None,164.56829418499547,None,None,164.56829418499547,None,999,,,2022_Jan_09_1316,BLAES_MST_encoding,3.2.4,235.7460400380895,
39,0,39,0,171.60336630900565,None,,,,,,,40,all_images/1_143a.jpg,HSim,168.5932718420081,None,168.5932718420081,None,168.5932718420081,None,168.5932718420081,None,168.5932718420081,None,None,168.5932718420081,None,999,,,2022_Jan_09_1316,BLAES_MST_encoding,3.2.4,235.7460400380895,
40,0,40,0,175.62300307300757,None,,,,,,,41,all_images/3_079a.jpg,HSim,172.61334291400271,None,172.61334291400271,None,172.61334291400271,None,172.61334291400271,None,172.61334291400271,None,None,172.61334291400271,None,999,,,2022_Jan_09_1316,BLAES_MST_encoding,3.2.4,235.7460400380895,
41,0,41,0,179.64576215000125,None,,,,,,,42,all_images/F_093a.jpg,LSim,176.63397921199794,None,176.63397921199794,None,176.63397921199794,None,176.63397921199794,None,176.63397921199794,None,None,176.63397921199794,None,999,,,2022_Jan_09_1316,BLAES_MST_encoding,3.2.4,235.7460400380895,
42,0,42,0,183.6675045669981,None,,,,,,,43,all_images/1_160a.jpg,HSim,180.6571359219961,None,180.6571359219961,None,180.6571359219961,None,180.6571359219961,None,180.6571359219961,None,None,180.6571359219961,None,999,,,2022_Jan_09_1316,BLAES_MST_encoding,3.2.4,235.7460400380895,
43,0,43,0,187.6913637510006,None,,,,,,,44,all_images/2_125a.jpg,LSim,184.6804043890006,None,184.6804043890006,None,184.6804043890006,None,184.6804043890006,None,184.6804043890006,None,None,184.6804043890006,None,999,,,2022_Jan_09_1316,BLAES_MST_encoding,3.2.4,235.7460400380895,
44,0,44,0,191.71717987999727,None,,,,,,,45,all_images/4_192a.jpg,LSim,188.7041954610031,None,188.7041954610031,None,188.7041954610031,None,188.7041954610031,None,188.7041954610031,None,None,188.7041954610031,None,999,,,2022_Jan_09_1316,BLAES_MST_encoding,3.2.4,235.7460400380895,
45,0,45,0,195.74462794000283,None,,,,,,,46,all_images/3_082a.jpg,LSim,192.73291083599906,None,192.73291083599906,None,192.73291083599906,None,192.73291083599906,None,192.73291083599906,None,None,192.73291083599906,None,999,,,2022_Jan_09_1316,BLAES_MST_encoding,3.2.4,235.7460400380895,
46,0,46,0,199.76621491900005,None,,,,,,,47,all_images/5_075a.jpg,HSim,196.75693360999867,None,196.75693360999867,None,196.75693360999867,None,196.75693360999867,None,196.75693360999867,None,None,196.75693360999867,None,999,,,2022_Jan_09_1316,BLAES_MST_encoding,3.2.4,235.7460400380895,
47,0,47,0,203.78853494000214,None,,,,,,,48,all_images/4_103a.jpg,HSim,200.77811149900663,None,200.77811149900663,None,200.77811149900663,None,200.77811149900663,None,200.77811149900663,None,None,200.77811149900663,None,999,,,2022_Jan_09_1316,BLAES_MST_encoding,3.2.4,235.7460400380895,
48,0,48,0,207.81047365399718,None,,,,,,,49,all_images/6_037a.jpg,HSim,204.80010825299541,None,204.80010825299541,None,204.80010825299541,None,204.80010825299541,None,204.80010825299541,None,None,204.80010825299541,None,999,,,2022_Jan_09_1316,BLAES_MST_encoding,3.2.4,235.7460400380895,
49,0,49,0,211.83414906900725,None,,,,,,,50,all_images/3_118a.jpg,LSim,208.82177607400808,None,208.82177607400808,None,208.82177607400808,None,208.82177607400808,None,208.82177607400808,None,None,208.82177607400808,None,999,,,2022_Jan_09_1316,BLAES_MST_encoding,3.2.4,235.7460400380895,
,,,,,,,,,,,,51,all_images/3_155a.jpg,LSim,,,,,,,,,,,,,,,,,,,,,
